TimeLabel,MEAS1_PPG1,MEAS1_PPG2,MEAS1_PPG3,MEAS1_PPG4,ACCX,ACCY,ACCZ,HR_timestamp,HR_value,radar_timestamp,phase_rx0,phase_rx1,phase_rx2,timestep,n_process,original_rate,calculated_rate
2025-07-01 22:25:22,3801.0,1265.0,6436.0,1192.0,2268.0,2471.0,2011.0,2025-07-01 22:25:22,68.0,2025/07/01 10:25:22 PM,-0.615854414174104,-2.90818790867061,-0.780162080315014,2025/07/01 10:25:22 PM,-5.36121058206406,22.107589721679688,22.056973732889375
,3799.0,1262.0,6435.0,1190.0,2266.0,2461.0,2011.0,2025-07-01 22:25:24,67.0,,-0.615997763638306,-2.9082135487914,-0.779501369999594,2025/07/01 10:25:32 PM,-4.80319990058883,23.206750869750977,17.40749525616699
,3792.0,1259.0,6429.0,1188.0,2253.0,2460.0,2011.0,2025-07-01 22:25:24,67.0,,-0.615836081011979,-2.90818235403605,-0.779516523458524,2025/07/01 10:25:42 PM,-4.142518801738912,20.51983642578125,18.881118881118873
,3786.0,1253.0,6414.0,1182.0,2246.0,2459.0,2009.0,2025-07-01 22:25:25,67.0,,-0.616257653807351,-2.90824874079025,-0.779596764061192,2025/07/01 10:25:52 PM,-3.384676794469164,19.10828018188477,20.532831139448785
,3775.0,1249.0,6394.0,1176.0,2241.0,2460.0,2008.0,2025-07-01 22:25:27,67.0,,-0.616616705203974,-2.90823347415612,-0.779829710553267,2025/07/01 10:26:02 PM,-2.5390755709352826,17.95063591003418,20.2335897902674
,3767.0,1246.0,6371.0,1173.0,2240.0,2462.0,2001.0,2025-07-01 22:25:27,66.0,,-0.616952584877995,-2.90819216435256,-0.78108142841093,2025/07/01 10:26:12 PM,-1.6186276670088882,19.80924415588379,18.57560831080332
,3758.0,1240.0,6344.0,1167.0,2238.0,2459.0,2005.0,2025-07-01 22:25:28,66.0,,-0.616780809790146,-2.90812107425836,-0.780159265425874,2025/07/01 10:26:22 PM,-0.6392292089194193,19.80924415588379,18.759305210918097
,3746.0,1233.0,6321.0,1162.0,2242.0,2455.0,2003.0,2025-07-01 22:25:29,66.0,,-0.616688615159983,-2.90814548085839,-0.780467654702769,2025/07/01 10:26:32 PM,0.380849216599663,19.10828018188477,17.91310825551388
,3739.0,1229.0,6297.0,1158.0,2261.0,2456.0,2007.0,2025-07-01 22:25:30,66.0,,-0.617266200114657,-2.9081786644095,-0.780466503195418,2025/07/01 10:26:42 PM,1.4215968850118352,18.60785675048828,12.435897435897434
,3727.0,1226.0,6276.0,1154.0,2242.0,2457.0,2009.0,2025-07-01 22:25:31,66.0,,-0.617873445315152,-2.90831596498763,-0.780455164886355,2025/07/01 10:26:52 PM,2.4618814680002306,16.191211700439453,12.2854561878952
,3720.0,1224.0,6257.0,1149.0,2241.0,2457.0,2010.0,2025-07-01 22:25:32,66.0,,-0.618240386037958,-2.90842280593902,-0.782007547652589,2025/07/01 10:27:02 PM,3.480031163657593,13.6260404586792,17.86324786324787
,3710.0,1217.0,6239.0,1142.0,2272.0,2463.0,2022.0,2025-07-01 22:25:33,66.0,,-0.618849670147005,-2.90864055593999,-0.782087057058366,2025/07/01 10:27:12 PM,4.454380184901433,14.442915916442873,13.610485899642526
,3705.0,1214.0,6224.0,1142.0,2248.0,2470.0,2010.0,2025-07-01 22:25:34,66.0,,-0.620037343978875,-2.90869772581987,-0.78263927063363,2025/07/01 10:27:22 PM,5.363793318491649,15.693112373352053,12.371134020618571
,3694.0,1212.0,6210.0,1136.0,2241.0,2470.0,2012.0,2025-07-01 22:25:35,67.0,,-0.620770878103135,-2.90874985645417,-0.782842557448479,2025/07/01 10:27:32 PM,6.188193495322302,14.50443172454834,14.728915662650593
,3692.0,1211.0,6200.0,1135.0,2247.0,2471.0,2014.0,2025-07-01 22:25:36,67.0,,-0.621726408725833,-2.90887421510299,-0.784037341896462,2025/07/01 10:27:42 PM,6.909115076638258,13.432836532592772,15.544715447154479
,3688.0,1210.0,6187.0,1132.0,2241.0,2464.0,2008.0,2025-07-01 22:25:37,69.0,,-0.622347171947495,-2.90911412492844,-0.784817697693156,2025/07/01 10:27:52 PM,7.510294871895875,13.942679405212402,14.116675839295517
,3682.0,1204.0,6182.0,1128.0,2249.0,2460.0,2007.0,2025-07-01 22:25:39,70.0,,-0.622885730612657,-2.90924500591316,-0.784392767457664,2025/07/01 10:28:02 PM,7.978294741248008,15.04297924041748,14.724480578139104
,3680.0,1206.0,6177.0,1127.0,2256.0,2462.0,1996.0,2025-07-01 22:25:39,70.0,,-0.623248090472788,-2.90941979899778,-0.785380368584947,2025/07/01 10:28:12 PM,8.303127774543574,14.883061408996582,16.37254155564015
,3680.0,1205.0,6175.0,1129.0,2265.0,2461.0,2005.0,2025-07-01 22:25:40,71.0,,-0.623653690909507,-2.90945856212346,-0.785909626305795,,8.478839164835218,,
,3677.0,1203.0,6168.0,1126.0,2265.0,2469.0,2003.0,2025-07-01 22:25:42,71.0,,-0.624157466739755,-2.90948408961181,-0.786884917297268,,8.503977494806886,,
,3672.0,1200.0,6162.0,1124.0,2290.0,2469.0,2000.0,2025-07-01 22:25:43,72.0,,-0.624090297948051,-2.90956228323198,-0.786201120891805,,8.38188581046333,,
,3674.0,1200.0,6162.0,1123.0,2258.0,2464.0,2011.0,2025-07-01 22:25:43,73.0,,-0.624119809885632,-2.9095975364162,-0.785587595521048,,8.120746914321495,,
,3676.0,1202.0,6162.0,1123.0,2249.0,2466.0,2018.0,2025-07-01 22:25:44,74.0,,-0.624351549942559,-2.90955518569754,-0.786136298136819,,7.733334648677028,,
,3672.0,1201.0,6163.0,1124.0,2282.0,2464.0,2010.0,2025-07-01 22:25:45,75.0,,-0.624022895977267,-2.90949419717808,-0.786764740739867,,7.236451705274436,,
,3671.0,1201.0,6162.0,1125.0,2261.0,2462.0,1997.0,2025-07-01 22:25:46,77.0,,-0.62441957141023,-2.90958636597934,-0.786522129295697,,6.650071697442249,,
,3670.0,1201.0,6157.0,1120.0,2269.0,2461.0,1995.0,2025-07-01 22:25:48,77.0,,-0.624457194070168,-2.90948001827928,-0.786286558273872,,5.996243278135896,,
,3671.0,1199.0,6158.0,1125.0,2258.0,2460.0,1998.0,2025-07-01 22:25:48,78.0,,-0.623948852643101,-2.9095992388574,-0.785658718644648,,5.297849176037117,,
,3671.0,1201.0,6160.0,1125.0,2279.0,2461.0,2010.0,2025-07-01 22:25:49,77.0,,-0.624208517543458,-2.9095466967424,-0.786701956095765,,4.577335267644998,,
,3672.0,1201.0,6159.0,1120.0,2268.0,2459.0,2009.0,2025-07-01 22:25:51,76.0,,-0.623773938345263,-2.90969063161082,-0.785842694075288,,3.8555293418685257,,
,3670.0,1199.0,6156.0,1121.0,2247.0,2462.0,2005.0,2025-07-01 22:25:51,76.0,,-0.624235142466887,-2.9095495499636,-0.786843513111838,,3.1506558880230466,,
,3673.0,1199.0,6160.0,1121.0,2239.0,2457.0,2009.0,2025-07-01 22:25:52,75.0,,-0.623840163928623,-2.90943138272896,-0.785804005511417,,2.4776257923848393,,
,3672.0,1201.0,6160.0,1119.0,2270.0,2451.0,2018.0,2025-07-01 22:25:53,75.0,,-0.623828718498055,-2.90955603933465,-0.785285758851102,,1.8476439133370335,,
,3671.0,1202.0,6162.0,1120.0,2263.0,2450.0,2025.0,2025-07-01 22:25:54,75.0,,-0.623687950758725,-2.90943159758028,-0.785917370477247,,1.268139066542693,,
,3669.0,1201.0,6162.0,1120.0,2266.0,2456.0,2010.0,2025-07-01 22:25:55,74.0,,-0.623645591381079,-2.90954083010584,-0.786315871079901,,0.7429852998551514,,
,3671.0,1200.0,6162.0,1121.0,2274.0,2469.0,2009.0,2025-07-01 22:25:56,74.0,,-0.623703754138791,-2.90951392316714,-0.78486692781439,,0.2729546001343381,,
,3673.0,1201.0,6167.0,1123.0,2266.0,2467.0,2014.0,2025-07-01 22:25:57,74.0,,-0.623160906348315,-2.90955267735864,-0.78602155910307,,-0.1436779452448826,,
,3674.0,1203.0,6163.0,1124.0,2254.0,2465.0,2015.0,2025-07-01 22:25:58,74.0,,-0.623556042965145,-2.90942659954571,-0.785883826477984,,-0.510463608468283,,
,3673.0,1204.0,6167.0,1124.0,2260.0,2474.0,2009.0,2025-07-01 22:25:59,73.0,,-0.6234451855524,-2.90949298189944,-0.786128110009177,,-0.8321278454070239,,
,3676.0,1202.0,6166.0,1119.0,2252.0,2463.0,2006.0,2025-07-01 22:26:00,73.0,,-0.623014806566043,-2.90951703532764,-0.78578900647527,,-1.1140059633276305,,
,3676.0,1204.0,6171.0,1122.0,2251.0,2480.0,2008.0,2025-07-01 22:26:01,72.0,,-0.622984054856062,-2.9094476636374,-0.785198967272265,,-1.3616127985714912,,
,3677.0,1204.0,6171.0,1126.0,2265.0,2471.0,2023.0,2025-07-01 22:26:03,71.0,,-0.623854174776513,-2.90943911964782,-0.785905343535728,,-1.5803640545889017,,
,3676.0,1203.0,6171.0,1124.0,2257.0,2470.0,2017.0,2025-07-01 22:26:03,71.0,,-0.624216881178302,-2.90942829637482,-0.786701833419962,,-1.7754387152668214,,
,3675.0,1200.0,6170.0,1122.0,2263.0,2472.0,2023.0,2025-07-01 22:26:04,71.0,,-0.624678501664746,-2.90955493213162,-0.786624727350143,,-1.9517493713436562,,
,3676.0,1203.0,6174.0,1121.0,2258.0,2465.0,2012.0,2025-07-01 22:26:05,71.0,,-0.625286394881432,-2.90975315172245,-0.7868036113096,,-2.1139736698989844,,
,3678.0,1202.0,6172.0,1123.0,2260.0,2469.0,2010.0,2025-07-01 22:26:06,71.0,,-0.625921438534272,-2.90975733656484,-0.788018208406061,,-2.2665960233536837,,
,3674.0,1205.0,6173.0,1122.0,2244.0,2465.0,2017.0,2025-07-01 22:26:07,71.0,,-0.626820618989123,-2.90991316649216,-0.789332772225558,,-2.4139129727631667,,
,3675.0,1201.0,6173.0,1125.0,2248.0,2467.0,2004.0,2025-07-01 22:26:09,71.0,,-0.627692312211263,-2.91015239201534,-0.789786632304591,,-2.559966273373301,,
,3675.0,1204.0,6170.0,1122.0,2241.0,2465.0,2004.0,2025-07-01 22:26:09,71.0,,-0.628325438897377,-2.9103076906992,-0.79084535674202,,-2.7083828729540143,,
,3676.0,1204.0,6174.0,1121.0,2242.0,2466.0,2005.0,2025-07-01 22:26:10,70.0,,-0.629390959812441,-2.91043230532548,-0.790902715815869,,-2.8621185891592367,,
,3675.0,1203.0,6170.0,1123.0,2230.0,2460.0,2011.0,2025-07-01 22:26:12,70.0,,-0.629680350907633,-2.91070134853453,-0.792630886623283,,-3.0231205979947173,,
,3676.0,1204.0,6169.0,1121.0,2239.0,2457.0,2015.0,2025-07-01 22:26:12,69.0,,-0.62999837897401,-2.91082798255267,-0.7931383841971,,-3.1919409321729604,,
,3673.0,1201.0,6166.0,1120.0,2269.0,2463.0,2008.0,2025-07-01 22:26:13,69.0,,-0.630121956129715,-2.91101880725902,-0.793011284666886,,-3.3673472042828165,,
,3676.0,1202.0,6170.0,1122.0,2265.0,2464.0,2012.0,2025-07-01 22:26:15,70.0,,-0.630406749715658,-2.91102728530972,-0.793735674500756,,-3.5459860316824217,,
,3673.0,1203.0,6166.0,1122.0,2230.0,2467.0,2003.0,2025-07-01 22:26:16,70.0,,-0.631096488042325,-2.91116283303331,-0.793439493865022,,-3.72215775547105,,
,3675.0,1203.0,6169.0,1124.0,2236.0,2467.0,2002.0,2025-07-01 22:26:16,71.0,,-0.630731475423503,-2.91112141828257,-0.794471406864593,,-3.887757078300812,,
,3672.0,1202.0,6166.0,1121.0,2264.0,2464.0,2004.0,2025-07-01 22:26:17,70.0,,-0.631800459266025,-2.91121834452073,-0.795367127229339,,-4.032422849631524,,
,3671.0,1201.0,6167.0,1119.0,2255.0,2468.0,1997.0,2025-07-01 22:26:18,70.0,,-0.630856460137981,-2.91112598033293,-0.794052076039447,,-4.143921612803947,,
,3677.0,1203.0,6168.0,1121.0,2263.0,2465.0,2017.0,2025-07-01 22:26:19,69.0,,-0.630896244119943,-2.9109664410238,-0.794967132280116,,-4.2087645031554874,,
,3676.0,1203.0,6170.0,1121.0,2264.0,2465.0,2014.0,2025-07-01 22:26:20,68.0,,-0.630139698337095,-2.91096875524397,-0.79480398427864,,-4.213027600404621,,
,3678.0,1202.0,6172.0,1123.0,2267.0,2471.0,2014.0,2025-07-01 22:26:21,67.0,,-0.629487079915463,-2.91094781122329,-0.794988660186671,,-4.1433157432213825,,
,3677.0,1202.0,6173.0,1121.0,2258.0,2470.0,2010.0,2025-07-01 22:26:22,66.0,,-0.628733684295232,-2.91097425243974,-0.793842018965227,,-3.987784713688695,,
,3680.0,1204.0,6176.0,1124.0,2267.0,2464.0,2006.0,2025-07-01 22:26:24,66.0,,-0.628465239090024,-2.91086389969076,-0.794189728081525,,-3.737122277626339,,
,3680.0,1207.0,6175.0,1123.0,2289.0,2465.0,2008.0,2025-07-01 22:26:24,67.0,,-0.62818733114162,-2.91076662461369,-0.793371971577046,,-3.3853884038357487,,
,3682.0,1207.0,6179.0,1125.0,2270.0,2463.0,2015.0,2025-07-01 22:26:26,67.0,,-0.627820574246814,-2.91084309262863,-0.794022676656061,,-2.9306295497135504,,
,3682.0,1206.0,6182.0,1124.0,2271.0,2480.0,2019.0,2025-07-01 22:26:27,67.0,,-0.627815347300319,-2.91088272690666,-0.793783042913099,,-2.375209019831431,,
,3683.0,1209.0,6182.0,1124.0,2271.0,2473.0,1990.0,2025-07-01 22:26:27,67.0,,-0.62876096868179,-2.91099454772607,-0.793456333628641,,-1.7258310752926733,,
,3685.0,1209.0,6188.0,1126.0,2262.0,2467.0,2004.0,2025-07-01 22:26:28,67.0,,-0.628334181730977,-2.91098298363636,-0.793590339612026,,-0.9932752635153301,,
,3687.0,1210.0,6190.0,1127.0,2269.0,2464.0,2007.0,2025-07-01 22:26:29,66.0,,-0.629041894046772,-2.91099265375649,-0.79407384495717,,-0.19189289455761258,,
,3688.0,1208.0,6190.0,1125.0,2256.0,2468.0,2005.0,2025-07-01 22:26:30,66.0,,-0.629535174965506,-2.91096007003548,-0.795131200312533,,0.6610567323100065,,
,3690.0,1209.0,6194.0,1127.0,2281.0,2468.0,2010.0,2025-07-01 22:26:31,65.0,,-0.630128879466306,-2.91104153584266,-0.79492849557076,,1.5461416558230046,,
,3691.0,1213.0,6199.0,1126.0,2276.0,2459.0,2003.0,2025-07-01 22:26:33,65.0,,-0.630436377367726,-2.9110812202068,-0.795112107394465,,2.4424806365664717,,
,3694.0,1210.0,6203.0,1129.0,2274.0,2456.0,2010.0,2025-07-01 22:26:34,65.0,,-0.630179101693693,-2.91117023413764,-0.795079998296129,,3.328390736108316,,
,3696.0,1210.0,6204.0,1129.0,2286.0,2458.0,2023.0,2025-07-01 22:26:34,65.0,,-0.629936354435813,-2.91117045824695,-0.794758501618742,,4.181924621022092,,
,3696.0,1213.0,6208.0,1129.0,2267.0,2461.0,2012.0,2025-07-01 22:26:35,65.0,,-0.629804374292665,-2.91111306912375,-0.796024715373096,,4.981296156698763,,
,3700.0,1215.0,6216.0,1130.0,2255.0,2462.0,2003.0,2025-07-01 22:26:36,65.0,,-0.629931342916595,-2.91099386422231,-0.79507994476143,,5.705223401919547,,
,3704.0,1214.0,6218.0,1130.0,2283.0,2462.0,2010.0,2025-07-01 22:26:37,65.0,,-0.629457310063136,-2.91105154519707,-0.795201759737522,,6.33324091527342,,
,3703.0,1217.0,6223.0,1135.0,2291.0,2455.0,2014.0,2025-07-01 22:26:39,65.0,,-0.629864753492511,-2.91112484832322,-0.794295788919404,,6.846044201310083,,
,3704.0,1217.0,6224.0,1133.0,2280.0,2453.0,2009.0,2025-07-01 22:26:39,65.0,,-0.629473158197364,-2.91109250252622,-0.79531318711885,,7.225925286325624,,
,3707.0,1216.0,6226.0,1134.0,2281.0,2444.0,2014.0,2025-07-01 22:26:40,64.0,,-0.629560592310423,-2.91094566689422,-0.795282921454563,,7.4573390061279445,,
,3707.0,1220.0,6232.0,1133.0,2285.0,2460.0,2011.0,2025-07-01 22:26:41,64.0,,-0.629515077902244,-2.91096139088368,-0.795514219305127,,7.527607019142518,,
,3710.0,1220.0,6235.0,1134.0,2272.0,2467.0,2012.0,2025-07-01 22:26:43,65.0,,-0.629842801290248,-2.91093274165787,-0.795854680920292,,7.427726720920491,,
,3710.0,1220.0,6236.0,1139.0,2255.0,2462.0,2008.0,2025-07-01 22:26:43,65.0,,-0.629341457437354,-2.91096208800781,-0.795188523544457,,7.15321310647856,,
,3713.0,1222.0,6242.0,1137.0,2265.0,2459.0,1999.0,2025-07-01 22:26:44,65.0,,-0.629036332230881,-2.91097562587363,-0.795059995051631,,6.704870991243705,,
,3717.0,1224.0,6245.0,1139.0,2268.0,2463.0,1998.0,2025-07-01 22:26:46,65.0,,-0.628501076505603,-2.91105788616688,-0.794628752308786,,6.089378768893009,,
,3719.0,1225.0,6250.0,1141.0,2278.0,2468.0,2011.0,2025-07-01 22:26:46,65.0,,-0.628525167886329,-2.91104573156592,-0.795119813682438,,5.319566584563426,,
,3720.0,1225.0,6253.0,1140.0,2294.0,2470.0,2012.0,2025-07-01 22:26:48,64.0,,-0.627865890108238,-2.91103882528328,-0.794654614066468,,4.41429277322322,,
,3722.0,1227.0,6257.0,1142.0,2291.0,2462.0,2014.0,2025-07-01 22:26:48,64.0,,-0.628136044782274,-2.91084554565139,-0.79461119115002,,3.397861885942229,,
,3724.0,1227.0,6259.0,1143.0,2278.0,2460.0,2017.0,2025-07-01 22:26:49,63.0,,-0.627891849372109,-2.91094868541459,-0.79583393828677,,2.29898215245494,,
,3728.0,1228.0,6266.0,1145.0,2268.0,2454.0,1999.0,2025-07-01 22:26:51,62.0,,-0.628128560981416,-2.91101297812303,-0.794989252956833,,1.1493225418431243,,
,3729.0,1229.0,6267.0,1147.0,2267.0,2450.0,1995.0,2025-07-01 22:26:51,61.0,,-0.6283642674182,-2.91088600162839,-0.795707453708281,,-0.018211683830832704,,
,3728.0,1231.0,6269.0,1145.0,2258.0,2466.0,2005.0,2025-07-01 22:26:52,61.0,,-0.62853719867514,-2.91096489617715,-0.795162078992139,,-1.1713237174734057,,
,3736.0,1228.0,6275.0,1146.0,2281.0,2466.0,1995.0,2025-07-01 22:26:54,61.0,,-0.629063959725123,-2.91111416940661,-0.795511303489653,,-2.2801122562252623,,
,3733.0,1233.0,6278.0,1150.0,2279.0,2467.0,1997.0,2025-07-01 22:26:54,61.0,,-0.628979870405723,-2.91115884439032,-0.796192334074917,,-3.318633003779737,,
,3738.0,1234.0,6281.0,1150.0,2276.0,2470.0,2002.0,2025-07-01 22:26:55,61.0,,-0.629279078194778,-2.91112938042961,-0.79634953655887,,-4.266098339823261,,
,3739.0,1233.0,6283.0,1147.0,2293.0,2473.0,2007.0,2025-07-01 22:26:57,61.0,,-0.62924045962505,-2.91103788376323,-0.796512154014809,,-5.107623325338113,,
,3741.0,1234.0,6285.0,1151.0,2271.0,2459.0,2012.0,2025-07-01 22:26:57,61.0,,-0.629527409685614,-2.91098343685169,-0.795984366336636,,-5.834475735494778,,
,3745.0,1237.0,6288.0,1150.0,2275.0,2459.0,2002.0,2025-07-01 22:26:58,61.0,,-0.629323438289269,-2.91109492659522,-0.796120901863461,,-6.443836885536731,,
,3742.0,1236.0,6294.0,1154.0,2292.0,2455.0,2008.0,2025-07-01 22:26:59,60.0,,-0.629192145872984,-2.91110268457142,-0.795440486043415,,-6.938125020742331,,
,3748.0,1238.0,6296.0,1152.0,2287.0,2458.0,2012.0,2025-07-01 22:27:00,59.0,,-0.629103646934381,-2.91094686454568,-0.796042152768679,,-7.323970699906731,,
,3750.0,1238.0,6299.0,1154.0,2293.0,2468.0,2011.0,2025-07-01 22:27:01,58.0,,-0.628964995657386,-2.91080698121815,-0.795925236509628,,-7.610960226408919,,
,3751.0,1239.0,6303.0,1156.0,2274.0,2459.0,2006.0,2025-07-01 22:27:02,58.0,,-0.629096005326246,-2.91102856550791,-0.79589253747004,,-7.8102759051783055,,
,3753.0,1239.0,6305.0,1157.0,2281.0,2466.0,2015.0,2025-07-01 22:27:04,58.0,,-0.629308484014087,-2.91110333465044,-0.79693780941016,,-7.933360308726977,,
,3753.0,1243.0,6312.0,1160.0,2279.0,2464.0,2019.0,2025-07-01 22:27:04,58.0,,-0.629131895729756,-2.91103252311186,-0.796477763194724,,-7.9907178651574196,,
,3754.0,1241.0,6310.0,1155.0,2301.0,2460.0,2011.0,2025-07-01 22:27:05,59.0,,-0.628861761279493,-2.91104353437905,-0.796538825736829,,-7.990944117153681,,
,3756.0,1243.0,6316.0,1158.0,2289.0,2460.0,2012.0,2025-07-01 22:27:06,59.0,,-0.629223712609841,-2.91095516914217,-0.79613899733321,,-7.940044124076739,,
,3759.0,1248.0,6320.0,1160.0,2265.0,2462.0,2008.0,2025-07-01 22:27:07,60.0,,-0.629452325835552,-2.91113967077073,-0.796334393323623,,-7.8410696055687215,,
,3760.0,1244.0,6320.0,1159.0,2259.0,2461.0,2008.0,2025-07-01 22:27:08,60.0,,-0.629992197187612,-2.91099100764681,-0.795487818352015,,-7.694072444914746,,
,3763.0,1246.0,6325.0,1162.0,2261.0,2458.0,2000.0,2025-07-01 22:27:09,61.0,,-0.630531002014788,-2.91114851380296,-0.796859931808682,,-7.496343141916042,,
,3764.0,1246.0,6326.0,1163.0,2286.0,2466.0,1999.0,2025-07-01 22:27:10,61.0,,-0.630911171361866,-2.91126521393782,-0.795898214059991,,-7.242879886106475,,
,3766.0,1249.0,6330.0,1163.0,2267.0,2472.0,1999.0,2025-07-01 22:27:11,61.0,,-0.631482143651174,-2.91120447744432,-0.796986988513282,,-6.92702003752487,,
,3768.0,1249.0,6333.0,1165.0,2269.0,2470.0,2001.0,2025-07-01 22:27:12,62.0,,-0.631804975593884,-2.91135207662203,-0.798114566950891,,-6.541162981006721,,
,3770.0,1250.0,6336.0,1166.0,2254.0,2469.0,2006.0,2025-07-01 22:27:13,62.0,,-0.632658520049126,-2.91129674235853,-0.798628195518826,,-6.077521562284875,,
,3773.0,1251.0,6339.0,1168.0,2254.0,2460.0,2008.0,2025-07-01 22:27:14,62.0,,-0.633071350925725,-2.91164257554557,-0.798663052126479,,-5.5288554762016044,,
,3772.0,1253.0,6343.0,1167.0,2272.0,2470.0,2010.0,2025-07-01 22:27:15,62.0,,-0.634652162336013,-2.91177245458614,-0.800581726583737,,-4.889158211747378,,
,3776.0,1254.0,6349.0,1170.0,2275.0,2476.0,2017.0,2025-07-01 22:27:16,62.0,,-0.635966828832994,-2.91203638823863,-0.800704222239253,,-4.15428371884719,,
,3775.0,1254.0,6349.0,1170.0,2274.0,2472.0,2011.0,2025-07-01 22:27:18,62.0,,-0.637596010240696,-2.91237765044299,-0.80291746388234,,-3.322507043914251,,
,3776.0,1254.0,6350.0,1170.0,2277.0,2473.0,2007.0,2025-07-01 22:27:18,62.0,,-0.639708426165409,-2.91248400081768,-0.802891148958026,,-2.395014817074305,,
,3778.0,1254.0,6355.0,1169.0,2278.0,2477.0,2008.0,2025-07-01 22:27:19,62.0,,-0.641607858929548,-2.91290904074244,-0.804462780461222,,-1.3763174359314476,,
,3776.0,1254.0,6354.0,1172.0,2261.0,2474.0,2010.0,2025-07-01 22:27:21,62.0,,-0.644321755043245,-2.91311556431782,-0.80657456752975,,-0.2745658902177558,,
,3772.0,1251.0,6347.0,1169.0,2259.0,2471.0,2010.0,2025-07-01 22:27:22,62.0,,-0.646936567837745,-2.91360577922989,-0.807898470794335,,0.8982554107098933,,
,3763.0,1249.0,6332.0,1164.0,2235.0,2474.0,2014.0,2025-07-01 22:27:22,61.0,,-0.649761751408817,-2.91405240918718,-0.809513731281199,,2.126298126780354,,
,3758.0,1241.0,6318.0,1160.0,2272.0,2463.0,2013.0,2025-07-01 22:27:24,61.0,,-0.652328308999204,-2.91456702785222,-0.811691336516798,,3.3900218944132487,,
,3750.0,1243.0,6298.0,1158.0,2261.0,2455.0,2014.0,2025-07-01 22:27:24,61.0,,-0.656090659451635,-2.91519186678708,-0.814851521152718,,4.666597963712104,,
,3739.0,1236.0,6275.0,1150.0,2273.0,2452.0,2017.0,2025-07-01 22:27:26,61.0,,-0.659523119464673,-2.91559282070667,-0.817505415890837,,5.930550276133737,,
,3732.0,1233.0,6253.0,1148.0,2275.0,2455.0,2022.0,2025-07-01 22:27:27,61.0,,-0.661505582305378,-2.91597160669717,-0.816995956122838,,7.154608990896351,,
,3719.0,1227.0,6231.0,1142.0,2250.0,2459.0,2008.0,2025-07-01 22:27:27,62.0,,-0.663875689471982,-2.9163022747101,-0.820285107620708,,8.310723237928412,,
,3714.0,1226.0,6212.0,1140.0,2252.0,2466.0,1997.0,2025-07-01 22:27:28,62.0,,-0.666257780271194,-2.91662529454774,-0.82138335638413,,9.371162343145794,,
,3707.0,1220.0,6193.0,1133.0,2262.0,2471.0,2001.0,2025-07-01 22:27:29,62.0,,-0.667324669201098,-2.91690723130804,-0.822534576710532,,10.309630616027563,,
2025-07-01 22:25:23,3698.0,1217.0,6175.0,1132.0,2278.0,2468.0,2002.0,2025-07-01 22:27:31,62.0,2025/07/01 10:25:23 PM,-0.668245255066244,-2.9170973849665,-0.823710876977337,,11.10232741645168,,
,3691.0,1213.0,6161.0,1124.0,2270.0,2473.0,1992.0,2025-07-01 22:27:31,62.0,,-0.669437231410316,-2.91728422146194,-0.825227335911554,,11.728897071736993,,
,3686.0,1212.0,6148.0,1122.0,2275.0,2476.0,1993.0,2025-07-01 22:27:32,62.0,,-0.670928299777912,-2.91752043584278,-0.82607675161638,,12.173228321659002,,
,3682.0,1210.0,6137.0,1120.0,2297.0,2472.0,1986.0,2025-07-01 22:27:34,62.0,,-0.671889799301603,-2.91783601054193,-0.827369645381728,,12.424077361782606,,
,3677.0,1206.0,6133.0,1118.0,2286.0,2474.0,1993.0,2025-07-01 22:27:35,61.0,,-0.672850429007366,-2.91795764581789,-0.827173904941405,,12.475499956229056,,
,3674.0,1204.0,6121.0,1117.0,2301.0,2471.0,1997.0,2025-07-01 22:27:35,61.0,,-0.673948800863244,-2.91810217839472,-0.829847900128204,,12.327085139732667,,
,3670.0,1204.0,6119.0,1114.0,2288.0,2472.0,1990.0,2025-07-01 22:27:36,61.0,,-0.675015994205608,-2.9183589564384,-0.830942379360217,,11.983985858658095,,
,3672.0,1204.0,6111.0,1112.0,2278.0,2474.0,1998.0,2025-07-01 22:27:37,61.0,,-0.676072598724551,-2.91844970800349,-0.831593334263996,,11.45674242258316,,
,3667.0,1200.0,6108.0,1110.0,2286.0,2475.0,2003.0,2025-07-01 22:27:38,61.0,,-0.676257020968763,-2.91860943961488,-0.832561075339411,,10.760896277619691,,
,3669.0,1203.0,6107.0,1111.0,2290.0,2476.0,2001.0,2025-07-01 22:27:39,62.0,,-0.677160694337364,-2.91884867672106,-0.832967524739925,,9.916398124100601,,
,3666.0,1201.0,6103.0,1111.0,2286.0,2467.0,1992.0,2025-07-01 22:27:40,62.0,,-0.677857521100114,-2.91905648781117,-0.834058278506661,,8.946827646648304,,
,3665.0,1201.0,6104.0,1113.0,2293.0,2459.0,2004.0,2025-07-01 22:27:41,62.0,,-0.678676896488227,-2.91902993694829,-0.834531558451906,,7.878460122263311,,
,3666.0,1202.0,6105.0,1111.0,2307.0,2477.0,2000.0,2025-07-01 22:27:43,63.0,,-0.678657642415235,-2.91934295119095,-0.835049357510308,,6.739232355842471,,
,3667.0,1202.0,6108.0,1110.0,2302.0,2486.0,1996.0,2025-07-01 22:27:43,63.0,,-0.678537144198416,-2.91922939189136,-0.835557270777648,,5.557670497106522,,
,3666.0,1200.0,6105.0,1109.0,2307.0,2474.0,2012.0,2025-07-01 22:27:45,63.0,,-0.678356105221214,-2.91927322927239,-0.835809079620326,,4.361841989974198,,
,3666.0,1201.0,6109.0,1110.0,2258.0,2458.0,2005.0,2025-07-01 22:27:46,62.0,,-0.678421512313799,-2.91942734987262,-0.836223164697645,,3.178384510271693,,
,3667.0,1203.0,6108.0,1109.0,2250.0,2448.0,2004.0,2025-07-01 22:27:47,62.0,,-0.677698048563291,-2.91945321258324,-0.835857530040968,,2.0316509739357564,,
,3669.0,1202.0,6108.0,1109.0,2259.0,2452.0,2004.0,2025-07-01 22:27:48,62.0,,-0.677474100792264,-2.91939194544397,-0.835373244142994,,0.9429968216827063,,
,3668.0,1203.0,6110.0,1110.0,2267.0,2450.0,1999.0,2025-07-01 22:27:48,62.0,,-0.677469402318063,-2.9193640246556,-0.835574010384955,,-0.06977289868392839,,
,3668.0,1201.0,6110.0,1107.0,2265.0,2446.0,2000.0,2025-07-01 22:27:49,62.0,,-0.676203361384109,-2.91923892246531,-0.83552119547659,,-0.9927836583622516,,
,3671.0,1203.0,6113.0,1112.0,2268.0,2461.0,2008.0,2025-07-01 22:27:51,63.0,,-0.675755773932985,-2.91895022447794,-0.834774379195508,,-1.8162892029689661,,
,3671.0,1203.0,6115.0,1111.0,2272.0,2458.0,2012.0,2025-07-01 22:27:51,64.0,,-0.674999075256828,-2.91895774550218,-0.833936729189064,,-2.5346833866613454,,
,3673.0,1206.0,6118.0,1114.0,2289.0,2458.0,2016.0,2025-07-01 22:27:52,66.0,,-0.67484418654369,-2.91896374557647,-0.83496165002811,,-3.1463324632743697,,
,3673.0,1202.0,6118.0,1112.0,2269.0,2462.0,2008.0,2025-07-01 22:27:54,66.0,,-0.673891252194771,-2.91889322854595,-0.834313285221584,,-3.65324594570774,,
,3674.0,1204.0,6123.0,1110.0,2297.0,2469.0,2002.0,2025-07-01 22:27:55,66.0,,-0.673897563874036,-2.91879726565222,-0.834133645243685,,-4.06061437852846,,
,3676.0,1205.0,6127.0,1116.0,2288.0,2475.0,2019.0,2025-07-01 22:27:56,66.0,,-0.67327237357422,-2.9186712792295,-0.834212802324394,,-4.3762490805223475,,
,3677.0,1206.0,6129.0,1115.0,2275.0,2471.0,2012.0,2025-07-01 22:27:56,65.0,,-0.673421713510934,-2.91870396293436,-0.832380206097566,,-4.6099618315081905,,
,3677.0,1205.0,6129.0,1111.0,2257.0,2463.0,2020.0,2025-07-01 22:27:58,65.0,,-0.672663274268223,-2.91867123151121,-0.832893250900775,,-4.7729222978282,,
,3680.0,1206.0,6131.0,1111.0,2264.0,2462.0,2014.0,2025-07-01 22:27:58,65.0,,-0.671868463728832,-2.91845760412715,-0.832729919933211,,-4.87702864684172,,
,3680.0,1208.0,6134.0,1116.0,2256.0,2461.0,2009.0,2025-07-01 22:28:00,65.0,,-0.67156323951243,-2.91858153194009,-0.832564719997905,,-4.934322997345538,,
,3681.0,1209.0,6137.0,1113.0,2258.0,2462.0,2011.0,2025-07-01 22:28:01,66.0,,-0.670551266427236,-2.91836477405587,-0.832151443179112,,-4.9564783413628,,
,3681.0,1207.0,6137.0,1114.0,2288.0,2472.0,2009.0,2025-07-01 22:28:01,66.0,,-0.670110075803237,-2.91832474198383,-0.831759942193048,,-4.9543772134797965,,
,3682.0,1207.0,6135.0,1112.0,2288.0,2466.0,2007.0,2025-07-01 22:28:03,66.0,,-0.670111357738628,-2.91815700113078,-0.831865083116184,,-4.937794412198314,,
,3681.0,1207.0,6135.0,1116.0,2265.0,2465.0,2015.0,2025-07-01 22:28:03,65.0,,-0.668760374169191,-2.91823437720197,-0.831243903513104,,-4.91518642846443,,
,3683.0,1207.0,6139.0,1116.0,2267.0,2459.0,2014.0,2025-07-01 22:28:04,64.0,,-0.667862504396003,-2.9179426388227,-0.830582977484929,,-4.893579316456704,,
,3681.0,1208.0,6135.0,1115.0,2276.0,2463.0,2021.0,2025-07-01 22:28:05,63.0,,-0.667537566717956,-2.91792957403898,-0.83029215930954,,-4.878535606470976,,
,3680.0,1206.0,6134.0,1114.0,2254.0,2474.0,2017.0,2025-07-01 22:28:06,62.0,,-0.666510599695505,-2.9177287804802,-0.829642934433594,,-4.874171321253093,,
,3681.0,1208.0,6136.0,1113.0,2273.0,2468.0,2017.0,2025-07-01 22:28:07,61.0,,-0.664328645540495,-2.91719952652347,-0.827078084615998,,-4.883188686447627,,
,3682.0,1209.0,6133.0,1114.0,2250.0,2461.0,2005.0,2025-07-01 22:28:09,61.0,,-0.662439138822591,-2.9169768667595,-0.826296133059392,,-4.906891126141891,,
,3681.0,1206.0,6135.0,1115.0,2270.0,2466.0,2000.0,2025-07-01 22:28:10,61.0,,-0.661631495176847,-2.91667736309334,-0.824101116204019,,-4.94515561427434,,
,3680.0,1207.0,6130.0,1114.0,2292.0,2479.0,2003.0,2025-07-01 22:28:10,61.0,,-0.661089105537201,-2.9167449623228,-0.822796617371074,,-4.996352175311744,,
,3679.0,1205.0,6132.0,1113.0,2289.0,2453.0,2009.0,2025-07-01 22:28:12,62.0,,-0.660671795165968,-2.91663394622539,-0.82344097898288,,-5.057218346434972,,
,3682.0,1208.0,6134.0,1114.0,2279.0,2452.0,2012.0,2025-07-01 22:28:12,62.0,,-0.660005177616052,-2.91649209341425,-0.823207942217364,,-5.122714395129123,,
,3683.0,1206.0,6133.0,1114.0,2277.0,2459.0,2010.0,2025-07-01 22:28:13,63.0,,-0.660214736800775,-2.91640734323699,-0.823006374898709,,-5.1859001478452456,,
,3681.0,1205.0,6131.0,1112.0,2274.0,2463.0,2011.0,2025-07-01 22:28:14,64.0,,-0.660037992794577,-2.91639759241879,-0.824048413615036,,-5.237883948177527,,
,3681.0,1207.0,6134.0,1112.0,2265.0,2467.0,2014.0,2025-07-01 22:28:16,65.0,,-0.659953160591962,-2.91643137766619,-0.823494273904763,,-5.267896236986481,,
,3684.0,1208.0,6134.0,1112.0,2274.0,2467.0,2011.0,2025-07-01 22:28:16,67.0,,-0.66016739408704,-2.91650896973481,-0.82365271916834,,-5.263532931855582,,
,3684.0,1206.0,6137.0,1114.0,2258.0,2468.0,2010.0,2025-07-01 22:28:17,67.0,,-0.660192961096837,-2.91665450946357,-0.82320883225351,,-5.211197317256282,,
,3684.0,1211.0,6138.0,1114.0,2255.0,2474.0,2010.0,2025-07-01 22:28:18,67.0,,-0.660122985973018,-2.91646502767907,-0.823023981848605,,-5.096745808298738,,
,3683.0,1207.0,6138.0,1112.0,2257.0,2462.0,2008.0,2025-07-01 22:28:19,67.0,,-0.660291514727816,-2.91647071017243,-0.822114355101462,,-4.906316245700931,,
,3687.0,1210.0,6142.0,1114.0,2261.0,2456.0,2016.0,2025-07-01 22:28:20,66.0,,-0.659124899312326,-2.91632257785836,-0.822153383873104,,-4.627290842123493,,
,3688.0,1212.0,6146.0,1117.0,2285.0,2460.0,2009.0,2025-07-01 22:28:21,66.0,,-0.658827258703734,-2.91658271449802,-0.822114826344763,,-4.249322555393196,,
,3689.0,1210.0,6147.0,1116.0,2273.0,2464.0,2001.0,,,,-0.658408616893845,-2.91653479506205,-0.821985070184134,,-3.7653364587299443,,
,3691.0,1213.0,6150.0,1116.0,2298.0,2470.0,2008.0,,,,-0.657980563548184,-2.91617684130983,-0.820807329003473,,-3.172410056574255,,
,3692.0,1212.0,6155.0,1117.0,2280.0,2480.0,2004.0,,,,-0.656962445912521,-2.91630961001713,-0.821926016611899,,-2.4724419421587687,,
,3697.0,1214.0,6155.0,1119.0,2270.0,2466.0,2003.0,,,,-0.656713487593041,-2.91615156047802,-0.82138427077145,,-1.6725381519779607,,
,3699.0,1216.0,6160.0,1121.0,2251.0,2465.0,1990.0,,,,-0.656745981381938,-2.91594067559331,-0.820511486146268,,-0.785077105822265,,
,3701.0,1215.0,6166.0,1120.0,2263.0,2461.0,1987.0,,,,-0.656209065474191,-2.91595731603622,-0.820493673474666,,0.17255022244206605,,
,3700.0,1216.0,6167.0,1120.0,2278.0,2468.0,2003.0,,,,-0.655571407164383,-2.91585206102497,-0.819867157253464,,1.1784969899274396,,
,3704.0,1217.0,6173.0,1120.0,2257.0,2472.0,2022.0,,,,-0.65527188052325,-2.9157659801165,-0.819592455696422,,2.207265443450112,,
,3704.0,1218.0,6175.0,1124.0,2266.0,2460.0,2026.0,,,,-0.654454346745244,-2.91562201067746,-0.819975012500978,,3.2307029992483614,,
,3709.0,1220.0,6179.0,1125.0,2262.0,2460.0,2015.0,,,,-0.654138926972824,-2.91574512476375,-0.819030406470802,,4.219133329547716,,
,3710.0,1219.0,6181.0,1125.0,2280.0,2465.0,2014.0,,,,-0.653699823102875,-2.91558772093121,-0.819637263390384,,5.142572346656223,,
,3715.0,1223.0,6187.0,1126.0,2278.0,2457.0,2021.0,,,,-0.653482589129724,-2.91544612394548,-0.819579528239315,,5.971984891964017,,
,3716.0,1223.0,6193.0,1128.0,2249.0,2461.0,2015.0,,,,-0.652966673708378,-2.91534592896465,-0.818906625285692,,6.680539866336357,,
,3717.0,1226.0,6197.0,1128.0,2266.0,2456.0,2012.0,,,,-0.653167540572341,-2.9151861431596,-0.818683312529885,,7.244818178243755,,
,3720.0,1223.0,6199.0,1129.0,2277.0,2466.0,2009.0,,,,-0.653103202245431,-2.91515221632685,-0.818816009928885,,7.645921047549418,,
,3718.0,1226.0,6202.0,1130.0,2268.0,2457.0,2010.0,,,,-0.652797938075775,-2.91527102793162,-0.819359922181384,,7.870419668658253,,
,3723.0,1229.0,6208.0,1132.0,2278.0,2455.0,2012.0,,,,-0.652290844440603,-2.91529414764115,-0.818317870598873,,7.911084615465373,,
,3724.0,1228.0,6212.0,1132.0,2267.0,2461.0,2007.0,,,,-0.653069899059187,-2.91528277865613,-0.81858643249769,,7.7673365456783525,,
,3728.0,1231.0,6219.0,1134.0,2287.0,2461.0,2006.0,,,,-0.653448985819649,-2.9152022410018,-0.819235175931636,,7.445369064525459,,
,3729.0,1231.0,6221.0,1133.0,2270.0,2453.0,2008.0,,,,-0.653458743703521,-2.91529893370266,-0.81984417024105,,6.957910275829571,,
,3733.0,1232.0,6225.0,1136.0,2272.0,2453.0,2006.0,,,,-0.653965096982047,-2.91528349472144,-0.818927520000265,,6.323612496553894,,
,3736.0,1231.0,6230.0,1137.0,2284.0,2456.0,2001.0,,,,-0.653979071298246,-2.91540823500247,-0.820057915368051,,5.566090094273792,,
,3738.0,1234.0,6235.0,1140.0,2258.0,2456.0,2007.0,,,,-0.655014759573052,-2.9154106332167,-0.82022305633175,,4.712660725613745,,
,3738.0,1234.0,6237.0,1138.0,2263.0,2460.0,2016.0,,,,-0.655178354929448,-2.91544984716088,-0.820612187655732,,3.792879038672006,,
,3740.0,1238.0,6242.0,1142.0,2271.0,2465.0,2007.0,,,,-0.654724864847713,-2.91554585866182,-0.819631759637546,,2.836976250198115,,
,3746.0,1239.0,6246.0,1143.0,2272.0,2454.0,2005.0,,,,-0.65412667588958,-2.91549320760984,-0.820513177358966,,1.8743281572881145,,
,3747.0,1240.0,6250.0,1142.0,2280.0,2460.0,2003.0,,,,-0.654310681187561,-2.91524711634679,-0.820524889167311,,0.9320667830765673,,
,3748.0,1240.0,6252.0,1143.0,2305.0,2460.0,2015.0,,,,-0.654769848042091,-2.91541208883771,-0.820385276036928,,0.03392954684714786,,
,3752.0,1241.0,6257.0,1144.0,2275.0,2463.0,2012.0,,,,-0.65425445894735,-2.91530312346307,-0.819292156614676,,-0.8005909470632686,,
,3754.0,1242.0,6263.0,1145.0,2267.0,2465.0,2013.0,,,,-0.654424640140556,-2.91537252337808,-0.819853906571697,,-1.5567685738819168,,
,3753.0,1244.0,6264.0,1147.0,2256.0,2466.0,2005.0,,,,-0.654448567483152,-2.91537176521642,-0.820362592206247,,-2.224843021097467,,
,3759.0,1243.0,6269.0,1149.0,2263.0,2462.0,2000.0,,,,-0.654572595577877,-2.91538731476004,-0.819642024420266,,-2.7999309482199264,,
,3756.0,1243.0,6271.0,1148.0,2288.0,2466.0,2008.0,,,,-0.653539175519158,-2.91519185168783,-0.82008318881181,,-3.2817009899764753,,
,3765.0,1246.0,6274.0,1151.0,2275.0,2465.0,2002.0,,,,-0.654047834980563,-2.91532677831965,-0.819322390247165,,-3.67387108082668,,
,3764.0,1247.0,6281.0,1152.0,2268.0,2465.0,1997.0,,,,-0.654253393895131,-2.91535142542946,-0.819462419869054,,-3.9835835642043596,,
,3765.0,1247.0,6281.0,1153.0,2272.0,2460.0,2001.0,,,,-0.653725740192523,-2.91516461880251,-0.81819778041007,,-4.2207052357433525,,
,3767.0,1250.0,6286.0,1151.0,2283.0,2473.0,2004.0,,,,-0.652948218515706,-2.91511183132682,-0.818564560491911,,-4.397089976742108,,
,3767.0,1249.0,6289.0,1154.0,2272.0,2464.0,2011.0,,,,-0.652320373570495,-2.91502916819353,-0.817803055604309,,-4.525833224869145,,
,3772.0,1252.0,6294.0,1157.0,2273.0,2463.0,1993.0,,,,-0.651665901840978,-2.91492711940208,-0.817590856023858,,-4.620540696553014,,
,3774.0,1252.0,6297.0,1156.0,2277.0,2459.0,1990.0,,,,-0.651533690907793,-2.91479290549865,-0.817138598083711,,-4.6946285096478,,
,3775.0,1251.0,6300.0,1158.0,2282.0,2462.0,1994.0,,,,-0.650565761497803,-2.91461133450013,-0.816667171584741,,-4.760668423620556,,
,3777.0,1254.0,6301.0,1156.0,2287.0,2459.0,2007.0,,,,-0.650568715484964,-2.91448535662967,-0.816411989561154,,-4.829790563710877,,
,3780.0,1254.0,6308.0,1159.0,2273.0,2460.0,1996.0,,,,-0.649684262444202,-2.91447161959425,-0.815036175646466,,-4.911156343141822,,
,3783.0,1254.0,6310.0,1160.0,2261.0,2470.0,1996.0,,,,-0.649420522628175,-2.91425596089554,-0.81536429090352,,-5.011515342491247,,
,3785.0,1258.0,6312.0,1162.0,2268.0,2479.0,1995.0,,,,-0.648671286919164,-2.91433581640599,-0.814235967545869,,-5.134860664152405,,
,3786.0,1258.0,6316.0,1161.0,2284.0,2466.0,2004.0,,,,-0.647740585885892,-2.91412048848011,-0.812931737482459,,-5.282197302557376,,
,3789.0,1260.0,6321.0,1165.0,2306.0,2504.0,2032.0,,,,-0.647091915730605,-2.91393385343694,-0.812433183081012,,-5.45143732493191,,
,3791.0,1261.0,6324.0,1165.0,2286.0,2433.0,2022.0,,,,-0.646022781014425,-2.91387601168291,-0.812353675831952,,-5.637434015535106,,
,3794.0,1261.0,6328.0,1164.0,2294.0,2447.0,2014.0,,,,-0.645819748932967,-2.91376698620959,-0.81151798799265,,-5.832164011820701,,
,3792.0,1260.0,6327.0,1165.0,2259.0,2456.0,2000.0,,,,-0.644626640880746,-2.91355459583113,-0.810746794666215,,-6.025060907506657,,
,3790.0,1262.0,6329.0,1166.0,2280.0,2464.0,2003.0,,,,-0.643690223455292,-2.91343004196719,-0.810509721364822,,-6.203495147550795,,
,3790.0,1261.0,6326.0,1164.0,2267.0,2463.0,2010.0,,,,-0.642875679579004,-2.91337417254249,-0.809198780251928,,-6.353383787174561,,
,3786.0,1259.0,6318.0,1162.0,2272.0,2467.0,2010.0,,,,-0.641865272559594,-2.91298746845789,-0.808444477836191,,-6.45990171747014,,
,3776.0,1253.0,6303.0,1158.0,2268.0,2464.0,2011.0,,,,-0.641297499363594,-2.91309968607134,-0.808102157336402,,-6.508255550878377,,
,3767.0,1247.0,6285.0,1153.0,2272.0,2464.0,2011.0,,,,-0.640729744267778,-2.91290390032826,-0.807154800542909,,-6.484473886205689,,
,3762.0,1245.0,6265.0,1149.0,2251.0,2472.0,2003.0,,,,-0.640097400115869,-2.91280008934358,-0.80669318172573,,-6.376163448283321,,
,3752.0,1242.0,6241.0,1146.0,2225.0,2466.0,2007.0,,,,-0.639528135323002,-2.91265263014768,-0.806507307794069,,-6.173179785080095,,
,3745.0,1237.0,6217.0,1141.0,2226.0,2459.0,2007.0,,,,-0.639486886134004,-2.91257908442099,-0.80626176907944,,-5.868164561427507,,
,3731.0,1233.0,6198.0,1135.0,2259.0,2455.0,2007.0,,,,-0.639643291171328,-2.91258363064785,-0.806575734804878,,-5.4569101962046505,,
,3727.0,1229.0,6180.0,1132.0,2257.0,2452.0,2016.0,,,,-0.640242933980762,-2.9125813776285,-0.806511572157467,,-4.938527441337482,,
,3719.0,1224.0,6157.0,1127.0,2261.0,2451.0,2013.0,,,,-0.640643783407528,-2.91269767189293,-0.807068201754056,,-4.3154120511596075,,
,3713.0,1222.0,6143.0,1124.0,2263.0,2464.0,2012.0,,,,-0.640813673629281,-2.91281652629018,-0.806834461289227,,-3.5930307751136867,,
,3706.0,1219.0,6131.0,1119.0,2253.0,2467.0,2004.0,,,,-0.642059208680861,-2.9127829257194,-0.807693143994657,,-2.779570681358189,,
,3700.0,1217.0,6119.0,1118.0,2256.0,2458.0,1999.0,,,,-0.642749730660887,-2.91282253072255,-0.808002084494852,,-1.8855143987456655,,
,3697.0,1215.0,6108.0,1116.0,2247.0,2467.0,1992.0,,,,-0.642442705644283,-2.91294797701333,-0.808141802865156,,-0.9232124646166637,,
,3694.0,1215.0,6098.0,1114.0,2271.0,2465.0,1995.0,,,,-0.643420488027461,-2.91297810657194,-0.808703947236922,,0.09348078224699712,,
,3690.0,1213.0,6092.0,1111.0,2286.0,2474.0,2007.0,,,,-0.642820963309474,-2.91309204488754,-0.808250633435598,,1.1494601807421547,,
,3687.0,1210.0,6085.0,1108.0,2270.0,2475.0,2013.0,,,,-0.643492964453605,-2.91307137765596,-0.809115011356142,,2.2284943409067863,,
,3687.0,1209.0,6083.0,1108.0,2288.0,2466.0,2002.0,,,,-0.643157549120326,-2.91317139009935,-0.808284986021087,,3.313240526216598,,
,3687.0,1209.0,6080.0,1108.0,2282.0,2470.0,2001.0,,,,-0.643327147802751,-2.9130589567611,-0.808030957406276,,4.385202561690814,,
,3686.0,1208.0,6076.0,1107.0,2301.0,2469.0,1997.0,,,,-0.6427855897164,-2.91303445360391,-0.808434329742098,,5.424709871787443,,
,3684.0,1209.0,6076.0,1105.0,2281.0,2465.0,2009.0,,,,-0.64291235890481,-2.91309142431172,-0.807304600603117,,6.4110076157240865,,
,3683.0,1208.0,6073.0,1103.0,2280.0,2468.0,2003.0,,,,-0.642329612807228,-2.91284425968555,-0.806984328559443,,7.3225434976967785,,
,3685.0,1211.0,6077.0,1107.0,2276.0,2472.0,2003.0,,,,-0.641346772513894,-2.9127854534216,-0.806450041972434,,8.137515281613139,,
,3685.0,1210.0,6075.0,1107.0,2275.0,2472.0,2011.0,,,,-0.640922045194274,-2.91262833872289,-0.805684878317037,,8.834705662284362,,
,3682.0,1208.0,6077.0,1104.0,2274.0,2470.0,2009.0,,,,-0.640484906937746,-2.91253509044291,-0.805781024554758,,9.394582076738732,,
2025-07-01 22:25:24,3686.0,1209.0,6078.0,1103.0,2275.0,2462.0,2009.0,,,2025/07/01 10:25:24 PM,-0.640661035001857,-2.91249923407101,-0.80538791882403,,9.800585210338198,,
,3685.0,1210.0,6078.0,1105.0,2266.0,2473.0,2016.0,,,,-0.639983305990658,-2.9125820268224,-0.805590596165622,,10.040480258261585,,
,3684.0,1210.0,6079.0,1107.0,2262.0,2463.0,2020.0,,,,-0.639800721481832,-2.91225556118933,-0.804917951015137,,10.107608920769897,,
,3685.0,1208.0,6081.0,1106.0,2253.0,2460.0,2010.0,,,,-0.63944441733691,-2.9122761972868,-0.804555477218448,,10.0018660361447,,
,3686.0,1208.0,6081.0,1104.0,2263.0,2465.0,2008.0,,,,-0.639103225803525,-2.9122245563373,-0.80385595939124,,9.730238402101714,,
,3687.0,1212.0,6082.0,1106.0,2261.0,2458.0,2008.0,,,,-0.639238820676956,-2.91211610559342,-0.803475620883645,,9.306786359511797,,
,3688.0,1211.0,6086.0,1104.0,2274.0,2460.0,2009.0,,,,-0.638559583948271,-2.9121699414371,-0.803485395408159,,8.752017291183817,,
,3691.0,1209.0,6087.0,1107.0,2255.0,2464.0,2016.0,,,,-0.637755493953733,-2.91203568391078,-0.802140708824375,,8.091683898855177,,
,3690.0,1211.0,6090.0,1105.0,2264.0,2467.0,2005.0,,,,-0.637301304820318,-2.912009024591,-0.802214868217596,,7.35512282084364,,
,3691.0,1211.0,6089.0,1107.0,2270.0,2471.0,2005.0,,,,-0.637191319339868,-2.91192524719585,-0.801388424389435,,6.573313186043337,,
,3694.0,1212.0,6093.0,1110.0,2269.0,2471.0,2008.0,,,,-0.636448770664426,-2.91172828734085,-0.801893130854802,,5.776866932281175,,
,3695.0,1214.0,6098.0,1108.0,2262.0,2465.0,2002.0,,,,-0.635674129093814,-2.91168408380548,-0.800342950022873,,4.994158954329137,,
,3695.0,1213.0,6098.0,1106.0,2253.0,2457.0,1997.0,,,,-0.63600631714986,-2.91184888707329,-0.80008578362697,,4.249770536622603,,
,3697.0,1213.0,6102.0,1108.0,2272.0,2463.0,2000.0,,,,-0.63522163047866,-2.9115357808223,-0.80005407454967,,3.5633652394240922,,
,3699.0,1214.0,6102.0,1109.0,2252.0,2462.0,2008.0,,,,-0.634915154009278,-2.91155972680922,-0.801242600084082,,2.9490549115392537,,
,3699.0,1215.0,6103.0,1111.0,2265.0,2463.0,2009.0,,,,-0.634735045267528,-2.91146726253994,-0.800593911082302,,2.415254863853345,,
,3700.0,1216.0,6107.0,1110.0,2270.0,2454.0,2005.0,,,,-0.63464962949603,-2.91139234680584,-0.799783549900337,,1.9649777345107928,,
,3701.0,1217.0,6107.0,1108.0,2270.0,2461.0,2015.0,,,,-0.634593295319246,-2.91143303257349,-0.799967033842129,,1.5964783560038478,,
,3700.0,1217.0,6108.0,1110.0,2273.0,2466.0,2009.0,,,,-0.634824967415181,-2.91124888582758,-0.799225751339566,,1.3041383537404339,,
,3702.0,1217.0,6110.0,1112.0,2264.0,2468.0,2010.0,,,,-0.634070613102909,-2.91119848251955,-0.797983470078029,,1.0794697277864709,,
,3701.0,1216.0,6112.0,1109.0,2250.0,2469.0,2007.0,,,,-0.633532566814352,-2.91127796936797,-0.797886541791385,,0.9121211840317267,,
,3698.0,1215.0,6109.0,1109.0,2255.0,2463.0,2020.0,,,,-0.633232461090245,-2.91099804862189,-0.797344961111804,,0.790788797871206,,
,3701.0,1215.0,6112.0,1110.0,2259.0,2457.0,2016.0,,,,-0.63269026533831,-2.91103249743073,-0.797390040057945,,0.7039621392839828,,
,3703.0,1218.0,6110.0,1110.0,2260.0,2465.0,2004.0,,,,-0.632379581062438,-2.91104581871827,-0.79658628751503,,0.6404751195801263,,
,3701.0,1219.0,6111.0,1111.0,2245.0,2465.0,2004.0,,,,-0.631801477400506,-2.91083238875359,-0.796598947889634,,0.5898718768446046,,
,3701.0,1215.0,6112.0,1111.0,2248.0,2467.0,2012.0,,,,-0.631522340926,-2.91091385770595,-0.795997617714238,,0.5426335519715093,,
,3698.0,1215.0,6110.0,1111.0,2277.0,2457.0,2005.0,,,,-0.631000402893976,-2.91079462848197,-0.795580100610709,,0.49033253878281274,,
,3703.0,1217.0,6112.0,1109.0,2263.0,2466.0,2004.0,,,,-0.630078457046908,-2.91071467200088,-0.794857092988836,,0.42578058679554576,,
,3704.0,1217.0,6111.0,1113.0,2255.0,2470.0,2002.0,,,,-0.62949659360669,-2.91082765649966,-0.794183007722081,,0.3432160586475777,,
,3703.0,1217.0,6113.0,1112.0,2256.0,2457.0,2001.0,,,,-0.629265343692,-2.91055990356485,-0.794115790235033,,0.23853981344059338,,
,3702.0,1217.0,6113.0,1110.0,2272.0,2471.0,2007.0,,,,-0.629037379076021,-2.91052569691759,-0.793958503063704,,0.1095685503074762,,
,3706.0,1218.0,6114.0,1111.0,2256.0,2466.0,2011.0,,,,-0.628884807803299,-2.91035801391154,-0.793545064525337,,-0.04375953655582857,,
,3705.0,1220.0,6117.0,1113.0,2244.0,2461.0,2015.0,,,,-0.628700345369891,-2.91047620344648,-0.794064713969366,,-0.2193086678449345,,
,3707.0,1221.0,6118.0,1112.0,2255.0,2459.0,2014.0,,,,-0.629083218498729,-2.91047045705894,-0.793296427745718,,-0.41287357626856047,,
,3709.0,1219.0,6120.0,1112.0,2268.0,2460.0,2010.0,,,,-0.628906563128956,-2.91062226392751,-0.793583800668171,,-0.6185550290483434,,
,3713.0,1223.0,6124.0,1113.0,2285.0,2468.0,2001.0,,,,-0.628803686903743,-2.91055290779732,-0.792758982312174,,-0.8293775336705026,,
,3712.0,1221.0,6127.0,1113.0,2251.0,2470.0,2003.0,,,,-0.628735833835196,-2.91065462731628,-0.793721807357565,,-1.0380905592072438,,
,3714.0,1222.0,6131.0,1117.0,2265.0,2469.0,2001.0,,,,-0.628556807786543,-2.91061487804547,-0.794093988796403,,-1.2380497676266087,,
,3715.0,1221.0,6133.0,1115.0,2265.0,2466.0,2007.0,,,,-0.627985241874334,-2.91065424137903,-0.793897469864264,,-1.42404951380729,,
,3717.0,1223.0,6137.0,1118.0,2283.0,2463.0,2012.0,,,,-0.62802580540247,-2.91064258086793,-0.793465503993651,,-1.5929779973436007,,
,3718.0,1224.0,6139.0,1119.0,2232.0,2467.0,2002.0,,,,-0.627910309072934,-2.91050991635581,-0.791968508325647,,-1.7441916324688258,,
,3719.0,1225.0,6145.0,1120.0,2239.0,2472.0,1996.0,,,,-0.627167300403923,-2.91039329222894,-0.792856468687779,,-1.879549945399958,,
,3723.0,1228.0,6147.0,1119.0,2263.0,2475.0,2002.0,,,,-0.626227495547743,-2.91035762675348,-0.791888502697349,,-2.003107513073235,,
,3725.0,1229.0,6153.0,1121.0,2254.0,2473.0,2017.0,,,,-0.62544584665144,-2.91011839920184,-0.7920646510967,,-2.1205143888110296,,
,3728.0,1228.0,6157.0,1122.0,2273.0,2469.0,2012.0,,,,-0.624855667190088,-2.91000238911595,-0.790030041977661,,-2.2382210329823917,,
,3731.0,1231.0,6163.0,1123.0,2258.0,2461.0,2018.0,,,,-0.624212729781086,-2.90998632656505,-0.78987912768436,,-2.3626105251021987,,
,3734.0,1232.0,6165.0,1126.0,2251.0,2460.0,2018.0,,,,-0.624168818293014,-2.90987463547137,-0.790298730923843,,-2.4991860992080177,,
,3733.0,1229.0,6170.0,1125.0,2247.0,2468.0,2031.0,,,,-0.623590028272243,-2.90978315684135,-0.790037142038535,,-2.6519263656963226,,
,3735.0,1234.0,6173.0,1128.0,2241.0,2461.0,2010.0,,,,-0.623353852264656,-2.90979295791681,-0.789239646375518,,-2.8228884369629497,,
,3739.0,1234.0,6179.0,1127.0,2256.0,2464.0,2004.0,,,,-0.623052731315506,-2.90977466926953,-0.788954137517782,,-3.0120975921822843,,
,3745.0,1236.0,6180.0,1131.0,2266.0,2464.0,2009.0,,,,-0.623167002397515,-2.90952878435412,-0.788235532972359,,-3.2177186003448703,,
,3742.0,1236.0,6187.0,1129.0,2273.0,2475.0,2002.0,,,,-0.622469137781921,-2.90940088560538,-0.787993140149049,,-3.4364644927743826,,
,3747.0,1236.0,6189.0,1131.0,2253.0,2469.0,2005.0,,,,-0.621932887887627,-2.90944171014355,-0.78754848852125,,-3.6641672815266513,,
,3750.0,1239.0,6196.0,1135.0,2253.0,2467.0,2005.0,,,,-0.621000631514313,-2.90915776413758,-0.78675308996031,,-3.896413777243642,,
,3750.0,1243.0,6199.0,1134.0,2251.0,2467.0,2002.0,,,,-0.620528523375682,-2.90912447861446,-0.786626844281156,,-4.129139620265569,,
,3755.0,1241.0,6207.0,1136.0,2243.0,2456.0,1993.0,,,,-0.620156922026278,-2.90903845882095,-0.785522712225273,,-4.359077806897608,,
,3753.0,1240.0,6208.0,1136.0,2254.0,2461.0,1997.0,,,,-0.619883725156742,-2.90895697515762,-0.785304135781374,,-4.58397617721962,,
,3760.0,1246.0,6215.0,1138.0,2260.0,2464.0,2006.0,,,,-0.619865512800724,-2.90889730594571,-0.785638388690149,,-4.802531117628969,,
,3761.0,1244.0,6219.0,1140.0,2278.0,2462.0,2015.0,,,,-0.619157269796365,-2.90875832238317,-0.783877793611984,,-5.014028179098371,,
,3762.0,1245.0,6226.0,1141.0,2269.0,2469.0,2020.0,,,,-0.619004645110447,-2.90866086074074,-0.784303960957241,,-5.21772788327302,,
,3765.0,1246.0,6227.0,1139.0,2263.0,2464.0,2019.0,,,,-0.618783021817384,-2.90886284374107,-0.783481230915707,,-5.4120795945429325,,
,3766.0,1249.0,6230.0,1142.0,2268.0,2468.0,2011.0,,,,-0.618876153663166,-2.90868987902527,-0.783443665459974,,-5.593881674945258,,
,3770.0,1251.0,6234.0,1143.0,2260.0,2457.0,2004.0,,,,-0.618840705753275,-2.90860965671934,-0.784229984051521,,-5.757526887418082,,
,3776.0,1250.0,6240.0,1144.0,2238.0,2459.0,2005.0,,,,-0.618446096190757,-2.90870563038606,-0.783843178026643,,-5.894473763464797,,
,3775.0,1253.0,6242.0,1145.0,2238.0,2477.0,2003.0,,,,-0.617949129482089,-2.908541821073,-0.7825405110634,,-5.993064691668937,,
,3777.0,1253.0,6247.0,1145.0,2254.0,2464.0,2005.0,,,,-0.618119612821619,-2.90851311783251,-0.783392330475542,,-6.038770511624967,,
,3783.0,1255.0,6253.0,1149.0,2252.0,2472.0,2014.0,,,,-0.618067571333329,-2.90843228010019,-0.784413402202735,,-6.014884632983557,,
,3782.0,1258.0,6258.0,1148.0,2266.0,2478.0,2017.0,,,,-0.617492442190779,-2.90855659857338,-0.782617253290801,,-5.903625946787127,,
,3785.0,1257.0,6261.0,1150.0,2267.0,2446.0,2016.0,,,,-0.617563470487554,-2.90845482389656,-0.783124568567971,,-5.687549280963259,,
,3788.0,1258.0,6264.0,1153.0,2274.0,2463.0,2010.0,,,,-0.617272125924945,-2.90834016617508,-0.782145189373344,,-5.351114818652174,,
,3790.0,1259.0,6269.0,1152.0,2251.0,2461.0,2011.0,,,,-0.617547781426967,-2.90831865191687,-0.782347640551608,,-4.882242062315675,,
,3794.0,1261.0,6273.0,1156.0,2259.0,2473.0,1999.0,,,,-0.616998605415907,-2.90832623872156,-0.783041932541413,,-4.273674362767711,,
,3798.0,1263.0,6277.0,1155.0,2252.0,2464.0,2000.0,,,,-0.616949546471181,-2.90835435037797,-0.782242780381013,,-3.5240063076086603,,
,3795.0,1265.0,6278.0,1154.0,2247.0,2463.0,2017.0,,,,-0.617218393934394,-2.90841206684141,-0.78265054900014,,-2.638272866070681,,
,3800.0,1263.0,6282.0,1157.0,2263.0,2462.0,2008.0,,,,-0.61741447525808,-2.90836990944907,-0.783220488096673,,-1.6280572683193697,,
,3801.0,1266.0,6289.0,1159.0,2238.0,2470.0,2010.0,,,,-0.617425107996134,-2.90835356787928,-0.781974818392188,,-0.5111339770961728,,
,3803.0,1268.0,6293.0,1160.0,2234.0,2473.0,2011.0,,,,-0.616946428798381,-2.90838425940705,-0.782816413803659,,0.6892859304825241,,
,3805.0,1267.0,6296.0,1160.0,2251.0,2472.0,1997.0,,,,-0.617494554666767,-2.90842905013292,-0.782641179015537,,1.9456046001477807,,
,3808.0,1269.0,6301.0,1161.0,2255.0,2462.0,2013.0,,,,-0.617727054623024,-2.90844463505184,-0.783045195369785,,3.2270648319782005,,
,3811.0,1270.0,6306.0,1163.0,2253.0,2465.0,2009.0,,,,-0.617540742878638,-2.90844858888184,-0.781801944373129,,4.501041964660671,,
,3813.0,1271.0,6307.0,1164.0,2267.0,2463.0,2010.0,,,,-0.617759866245092,-2.90840319874084,-0.782446954987661,,5.734307790911843,,
,3816.0,1274.0,6313.0,1165.0,2264.0,2479.0,2005.0,,,,-0.617085174505807,-2.90830723872848,-0.781740055298418,,6.89420497165057,,
,3815.0,1275.0,6314.0,1163.0,2272.0,2459.0,2005.0,,,,-0.617180478955033,-2.90838916523874,-0.781493754321019,,7.949703956183803,,
,3820.0,1276.0,6321.0,1168.0,2271.0,2466.0,2012.0,,,,-0.616928567843093,-2.9082204963593,-0.782345330093935,,8.87234312640085,,
,3825.0,1277.0,6325.0,1171.0,2238.0,2473.0,2001.0,,,,-0.616438250865416,-2.90826316282689,-0.781376250220295,,9.637070940310286,,
,3824.0,1278.0,6328.0,1169.0,2246.0,2465.0,2000.0,,,,-0.61684279231201,-2.90812461881605,-0.78086941250156,,10.223013219797087,,
,3826.0,1278.0,6331.0,1170.0,2248.0,2455.0,2007.0,,,,-0.616818868978919,-2.90819134438405,-0.781752905129846,,10.614179454910296,,
,3830.0,1283.0,6333.0,1172.0,2259.0,2460.0,2007.0,,,,-0.616897854913009,-2.90813757659721,-0.779891735435062,,10.800101880064869,,
,3835.0,1282.0,6341.0,1174.0,2258.0,2459.0,2021.0,,,,-0.617035075111432,-2.90822781240747,-0.780276740280861,,10.77637516908633,,
,3836.0,1285.0,6343.0,1174.0,2254.0,2460.0,2016.0,,,,-0.617785976355366,-2.90820996337124,-0.780878411972915,,10.545039620332375,,
,3837.0,1282.0,6345.0,1174.0,2277.0,2475.0,2022.0,,,,-0.617958904774446,-2.90831007903932,-0.780854204502417,,10.114734120290233,,
,3839.0,1282.0,6349.0,1175.0,2268.0,2471.0,2015.0,,,,-0.618506274281542,-2.9081738410996,-0.780071906487085,,9.500543730628793,,
,3843.0,1287.0,6351.0,1180.0,2267.0,2475.0,2016.0,,,,-0.618178226709583,-2.90824371123862,-0.780505690455043,,8.723484627136553,,
,3843.0,1288.0,6357.0,1180.0,2253.0,2466.0,2017.0,,,,-0.618409926256152,-2.90825038110353,-0.780338117520576,,7.809606022936912,,
,3840.0,1285.0,6355.0,1178.0,2251.0,2461.0,2017.0,,,,-0.619156538711339,-2.90829731140348,-0.781047059646672,,6.788738561842591,,
,3834.0,1279.0,6348.0,1172.0,2263.0,2470.0,2010.0,,,,-0.619989637278015,-2.90826986994418,-0.781011046535863,,5.692970499281057,,
,3827.0,1281.0,6342.0,1173.0,2281.0,2467.0,2006.0,,,,-0.619945309108731,-2.90834733946814,-0.782020239335074,,4.554974676652377,,
,3819.0,1274.0,6326.0,1169.0,2283.0,2470.0,2012.0,,,,-0.620787185191236,-2.90858119138144,-0.781931325264406,,3.4063321696049913,,
,3810.0,1270.0,6304.0,1163.0,2272.0,2463.0,2014.0,,,,-0.621887154225295,-2.90852540784705,-0.781670301695763,,2.2759995211966304,,
,3803.0,1264.0,6281.0,1157.0,2257.0,2458.0,2012.0,,,,-0.622347315393513,-2.90878387556661,-0.782509220866676,,1.189047460909642,,
,3791.0,1259.0,6255.0,1154.0,2251.0,2463.0,2004.0,,,,-0.623194571971462,-2.90889587791865,-0.784024138756569,,0.16576483442670142,,
,3783.0,1256.0,6236.0,1149.0,2269.0,2462.0,2010.0,,,,-0.62517966126449,-2.90924228294055,-0.78462364982217,,-0.778821408110184,,
,3776.0,1254.0,6212.0,1146.0,2287.0,2460.0,2008.0,,,,-0.62664925708065,-2.90932686324432,-0.786397396500438,,-1.6350042881120388,,
,3768.0,1248.0,6191.0,1137.0,2266.0,2462.0,2000.0,,,,-0.627135100821391,-2.90958577225674,-0.78708474015105,,-2.3980686281220756,,
,3759.0,1243.0,6172.0,1137.0,2258.0,2455.0,2009.0,,,,-0.628207619952241,-2.9096241816898,-0.78778249519356,,-3.067646556361015,,
,3754.0,1242.0,6159.0,1133.0,2228.0,2461.0,2010.0,,,,-0.628763462543708,-2.90987355864111,-0.787985923947623,,-3.646850955712476,,
,3748.0,1240.0,6145.0,1127.0,2240.0,2461.0,2002.0,,,,-0.629877478650132,-2.90990487038845,-0.789703177951704,,-4.141294186016023,,
,3745.0,1237.0,6135.0,1126.0,2239.0,2464.0,2007.0,,,,-0.630624572201959,-2.91013606367066,-0.789928413218183,,-4.558100845664953,,
,3738.0,1235.0,6125.0,1123.0,2265.0,2463.0,2000.0,,,,-0.631530381007842,-2.91042347203304,-0.790855082123755,,-4.905013839005357,,
,3735.0,1234.0,6116.0,1124.0,2278.0,2479.0,2000.0,,,,-0.632499674184895,-2.91061400331115,-0.792000987149678,,-5.189674066693696,,
,3733.0,1234.0,6112.0,1120.0,2280.0,2473.0,2004.0,,,,-0.633185990234521,-2.91083478472079,-0.792234760277514,,-5.419127609771662,,
,3731.0,1230.0,6105.0,1118.0,2272.0,2466.0,2004.0,,,,-0.634415488718763,-2.91087392722396,-0.793297908029866,,-5.599582654353735,,
,3730.0,1232.0,6103.0,1116.0,2271.0,2464.0,2018.0,,,,-0.634391711519096,-2.91094669830286,-0.793697625194733,,-5.736404643118813,,
,3727.0,1230.0,6102.0,1118.0,2278.0,2456.0,2009.0,,,,-0.634944263282936,-2.9111458097414,-0.793962444971168,,-5.8343064308816635,,
,3729.0,1231.0,6102.0,1119.0,2269.0,2456.0,2014.0,,,,-0.634753891141983,-2.91118009223226,-0.794177149166233,,-5.897665541733766,,
,3731.0,1232.0,6102.0,1119.0,2272.0,2462.0,2010.0,,,,-0.635461780658829,-2.91116073714377,-0.794681227165388,,-5.930887160531373,,
,3728.0,1231.0,6101.0,1116.0,2275.0,2461.0,2014.0,,,,-0.634969001010755,-2.91118978190763,-0.794442766843156,,-5.938730799141101,,
,3728.0,1231.0,6101.0,1115.0,2265.0,2465.0,2018.0,,,,-0.635151254833347,-2.9110524514842,-0.794427364048635,,-5.926529155529003,,
,3729.0,1233.0,6103.0,1119.0,2227.0,2463.0,2006.0,,,,-0.63483382524808,-2.91098264026784,-0.793375011880362,,-5.900246269677444,,
,3729.0,1233.0,6105.0,1116.0,2244.0,2470.0,2005.0,,,,-0.633946286047334,-2.91102989513836,-0.794185525798275,,-5.866345324251626,,
,3732.0,1232.0,6105.0,1118.0,2253.0,2467.0,2002.0,,,,-0.633760903407911,-2.91092581612532,-0.79430876287296,,-5.831461690693856,,
,3729.0,1233.0,6105.0,1114.0,2296.0,2466.0,2008.0,,,,-0.633366398520512,-2.91102200567615,-0.794392315888824,,-5.8019020042084755,,
,3731.0,1231.0,6108.0,1118.0,2262.0,2467.0,2011.0,,,,-0.633105011878011,-2.91079359970944,-0.793163943724309,,-5.783013257281424,,
,3733.0,1233.0,6110.0,1119.0,2264.0,2460.0,2003.0,,,,-0.632837476581323,-2.91073341724014,-0.793115784167192,,-5.778485219732747,,
,3735.0,1234.0,6110.0,1119.0,2270.0,2460.0,2005.0,,,,-0.632557977279759,-2.91054575134144,-0.793054405162854,,-5.789663062257635,,
,3735.0,1232.0,6111.0,1119.0,2257.0,2467.0,2006.0,,,,-0.631866634410569,-2.91040810202602,-0.793817917570277,,-5.814953168650614,,
,3737.0,1233.0,6114.0,1119.0,2247.0,2463.0,2007.0,,,,-0.631142586879761,-2.91063554767814,-0.79265104564676,,-5.849402336499153,,
,3736.0,1236.0,6117.0,1118.0,2252.0,2460.0,2007.0,,,,-0.631531250933332,-2.91051759248563,-0.793055900010111,,-5.88451801903237,,
2025-07-01 22:25:25,3739.0,1236.0,6123.0,1120.0,2268.0,2461.0,1999.0,,,2025/07/01 10:25:25 PM,-0.631684332585964,-2.91047476273281,-0.793432405953618,,-5.908375220984433,,
,3741.0,1236.0,6123.0,1122.0,2259.0,2464.0,2009.0,,,,-0.631799132981325,-2.91060464253049,-0.793785964845196,,-5.906026291056026,,
,3741.0,1233.0,6125.0,1120.0,2243.0,2459.0,2020.0,,,,-0.631844602106161,-2.9105110327571,-0.79266713993437,,-5.860197466272529,,
,3741.0,1238.0,6127.0,1123.0,2245.0,2465.0,2012.0,,,,-0.632285073866671,-2.91064043610635,-0.792586505257238,,-5.752226006758463,,
,3744.0,1237.0,6131.0,1124.0,2255.0,2461.0,2005.0,,,,-0.632065597167668,-2.91061772707847,-0.794210175426346,,-5.563168589626708,,
,3743.0,1238.0,6133.0,1121.0,2249.0,2459.0,2010.0,,,,-0.63242836054263,-2.91076689814492,-0.793460913825834,,-5.2749976876089795,,
,3744.0,1236.0,6136.0,1121.0,2252.0,2458.0,2010.0,,,,-0.63252827436725,-2.91071113812008,-0.793901831847442,,-4.871798598205372,,
,3745.0,1237.0,6134.0,1124.0,2262.0,2460.0,2015.0,,,,-0.63260540995502,-2.91086498924361,-0.793558275262672,,-4.340885357825746,,
,3747.0,1239.0,6139.0,1123.0,2268.0,2463.0,2018.0,,,,-0.632672057666998,-2.91087975662656,-0.793852700361136,,-3.673767902390998,,
,3746.0,1241.0,6139.0,1124.0,2268.0,2463.0,2017.0,,,,-0.632821763513585,-2.91102431148109,-0.795508573383269,,-2.8669231618633155,,
,3745.0,1238.0,6138.0,1124.0,2247.0,2464.0,2024.0,,,,-0.633233424556855,-2.91093613973237,-0.793401931829326,,-1.9223454274292184,,
,3747.0,1240.0,6143.0,1122.0,2258.0,2460.0,2017.0,,,,-0.633253463626291,-2.91094151365109,-0.793932304825573,,-0.8478715310421235,,
,3749.0,1240.0,6143.0,1125.0,2255.0,2467.0,2010.0,,,,-0.633282529488984,-2.91093047530754,-0.794765736611556,,0.34271017261395625,,
,3749.0,1240.0,6144.0,1125.0,2259.0,2463.0,2022.0,,,,-0.634052271215225,-2.91106371523322,-0.795414204704699,,1.6297537783353284,,
,3747.0,1240.0,6142.0,1124.0,2255.0,2457.0,2020.0,,,,-0.633824090295313,-2.91109787523777,-0.79579101318407,,2.9880444304839,,
,3748.0,1237.0,6141.0,1123.0,2269.0,2457.0,2013.0,,,,-0.633488659181258,-2.91106184377828,-0.79533887366363,,4.38728495599533,,
,3748.0,1239.0,6144.0,1124.0,2285.0,2461.0,2019.0,,,,-0.633792894970254,-2.91110616321334,-0.796513643933449,,5.792798155710397,,
,3750.0,1240.0,6146.0,1123.0,2252.0,2464.0,2014.0,,,,-0.633984590707771,-2.91103381391276,-0.795565278997504,,7.16647319213579,,
,3747.0,1241.0,6145.0,1124.0,2250.0,2459.0,2011.0,,,,-0.633348838886881,-2.91116413259223,-0.794339483247378,,8.467985443387967,,
,3750.0,1237.0,6141.0,1122.0,2274.0,2461.0,2005.0,,,,-0.633238225546845,-2.9110424297657,-0.795467499754061,,9.656305219106892,,
,3750.0,1239.0,6146.0,1125.0,2249.0,2469.0,2006.0,,,,-0.632593844173273,-2.91100649868363,-0.795523971826913,,10.691480499968685,,
,3752.0,1242.0,6142.0,1124.0,2240.0,2466.0,1998.0,,,,-0.632639424908379,-2.91104400493651,-0.795689383966044,,11.536635545493887,,
,3751.0,1242.0,6148.0,1126.0,2248.0,2467.0,2002.0,,,,-0.632730957783744,-2.91088976220026,-0.794529264438726,,12.16007767476049,,
,3751.0,1242.0,6148.0,1128.0,2261.0,2468.0,2006.0,,,,-0.632585241125997,-2.91087653628553,-0.795443730878817,,12.537357791817541,,
,3752.0,1244.0,6147.0,1127.0,2272.0,2469.0,2003.0,,,,-0.632918073002777,-2.91076576404179,-0.794373091253659,,12.653096007600913,,
,3753.0,1243.0,6151.0,1125.0,2268.0,2464.0,2006.0,,,,-0.632511469095782,-2.91108489620834,-0.795307274328505,,12.502370766123015,,
,3752.0,1245.0,6155.0,1128.0,2234.0,2469.0,2010.0,,,,-0.632903600138868,-2.91098286017107,-0.794635203697559,,12.09148444299342,,
,3757.0,1244.0,6157.0,1131.0,2230.0,2464.0,2011.0,,,,-0.632014450162509,-2.91086122365334,-0.795818680821384,,11.437962991934135,,
,3756.0,1243.0,6157.0,1125.0,2244.0,2457.0,2006.0,,,,-0.632553108293908,-2.91097278683678,-0.795404318430872,,10.569719824480565,,
,3757.0,1244.0,6163.0,1132.0,2253.0,2450.0,2004.0,,,,-0.632554858943739,-2.91097591621299,-0.795390711032244,,9.523407010086576,,
,3762.0,1249.0,6166.0,1132.0,2252.0,2455.0,2017.0,,,,-0.631790531141999,-2.910956951243,-0.795949606194354,,8.342076278653957,,
,3763.0,1246.0,6170.0,1132.0,2256.0,2461.0,2021.0,,,,-0.632305976389427,-2.91092665439012,-0.795612095358312,,7.0723605179672235,,
,3765.0,1247.0,6169.0,1131.0,2257.0,2463.0,2023.0,,,,-0.63194536664061,-2.91092445349314,-0.794795685264163,,5.761447060174444,,
,3765.0,1250.0,6172.0,1134.0,2259.0,2460.0,2012.0,,,,-0.631993753466413,-2.91098105268021,-0.794867412849254,,4.454136813525496,,
,3768.0,1250.0,6181.0,1134.0,2274.0,2457.0,2006.0,,,,-0.632644157004774,-2.91092259565148,-0.795213104927795,,3.190265860287811,,
,3770.0,1252.0,6185.0,1136.0,2267.0,2465.0,2005.0,,,,-0.632357844889911,-2.9110454889408,-0.794930362028552,,2.0027129988975862,,
,3774.0,1252.0,6186.0,1138.0,2268.0,2469.0,2003.0,,,,-0.632508542523045,-2.91093924690176,-0.795183413919412,,0.9161376522750273,,
,3772.0,1253.0,6189.0,1136.0,2243.0,2465.0,2006.0,,,,-0.633236906354633,-2.91102953608941,-0.796033290271535,,-0.05349898328294477,,
,3776.0,1254.0,6196.0,1138.0,2268.0,2466.0,2018.0,,,,-0.633636936367295,-2.91114427817815,-0.796701867083836,,-0.8986662431519016,,
,3779.0,1256.0,6197.0,1142.0,2248.0,2464.0,2010.0,,,,-0.634397471784203,-2.91126880856683,-0.79595707273109,,-1.619361660268954,,
,3781.0,1257.0,6203.0,1140.0,2252.0,2473.0,2009.0,,,,-0.634647334702089,-2.91122677719749,-0.796947802889585,,-2.2217387792411163,,
,3780.0,1257.0,6206.0,1139.0,2267.0,2469.0,2011.0,,,,-0.634957526295454,-2.91134042773281,-0.797652260409344,,-2.7164574226879825,,
,3783.0,1259.0,6212.0,1141.0,2272.0,2462.0,2013.0,,,,-0.635145366294663,-2.91125397379271,-0.798237222629818,,-3.116951822211099,,
,3789.0,1260.0,6216.0,1146.0,2261.0,2465.0,2005.0,,,,-0.634894185734841,-2.91136315660142,-0.797814242846594,,-3.437794272812642,,
,3790.0,1259.0,6221.0,1145.0,2270.0,2466.0,2006.0,,,,-0.634762023837618,-2.91115140947738,-0.797887771359667,,-3.6932984026411297,,
,3791.0,1263.0,6224.0,1146.0,2270.0,2484.0,2007.0,,,,-0.635125928934411,-2.91119636643941,-0.79793895510897,,-3.896462487682648,,
,3793.0,1263.0,6231.0,1149.0,2289.0,2464.0,1998.0,,,,-0.635200489699433,-2.91123563893971,-0.79874817119417,,-4.058305044275695,,
,3798.0,1264.0,6235.0,1150.0,2272.0,2473.0,1999.0,,,,-0.635493864911291,-2.91127240907101,-0.798912983551833,,-4.187596906488599,,
,3799.0,1267.0,6236.0,1151.0,2273.0,2475.0,1998.0,,,,-0.635761517393639,-2.911203430597,-0.79872438483382,,-4.290949787767402,,
,3798.0,1266.0,6240.0,1151.0,2258.0,2470.0,2001.0,,,,-0.635977212186017,-2.91132053798606,-0.799211289490899,,-4.373184071242621,,
,3801.0,1268.0,6244.0,1154.0,2251.0,2467.0,2003.0,,,,-0.636582341388774,-2.91132159795962,-0.798185370284555,,-4.437871766600671,,
,3805.0,1268.0,6247.0,1153.0,2280.0,2467.0,2003.0,,,,-0.636228451696446,-2.91143324081092,-0.798331824550718,,-4.487937978370427,,
,3808.0,1269.0,6255.0,1155.0,2256.0,2464.0,2005.0,,,,-0.636305967368043,-2.91134047191419,-0.798541529250909,,-4.526208178654196,,
,3810.0,1272.0,6258.0,1159.0,2262.0,2463.0,2004.0,,,,-0.636414012111122,-2.91137302232412,-0.798869008363852,,-4.555808139090792,,
,3812.0,1272.0,6259.0,1154.0,2298.0,2463.0,2001.0,,,,-0.636906423867086,-2.91127350005653,-0.798247820260886,,-4.580354358149245,,
,3812.0,1274.0,6264.0,1157.0,2299.0,2466.0,2001.0,,,,-0.636872914703828,-2.9112729263866,-0.798940700530168,,-4.603909371158216,,
,3816.0,1277.0,6273.0,1161.0,2279.0,2470.0,2006.0,,,,-0.636736168636345,-2.91145656666945,-0.799653743955345,,-4.6307126502153295,,
,3820.0,1277.0,6274.0,1161.0,2285.0,2468.0,2004.0,,,,-0.637106028845603,-2.91147408474853,-0.799736151273978,,-4.664729162556339,,
,3818.0,1278.0,6276.0,1160.0,2264.0,2449.0,2002.0,,,,-0.637564575301402,-2.91141706632433,-0.799245019983143,,-4.709080904769807,,
,3821.0,1277.0,6280.0,1162.0,2267.0,2463.0,2008.0,,,,-0.637569213685199,-2.91140220603525,-0.800403697542414,,-4.765440412947875,,
,3827.0,1279.0,6283.0,1164.0,2266.0,2461.0,2008.0,,,,-0.637840850254564,-2.91146405357995,-0.799667783331832,,-4.833469344780012,,
,3826.0,1281.0,6287.0,1167.0,2270.0,2458.0,1998.0,,,,-0.637899815016533,-2.91155886488681,-0.799653454366589,,-4.910380580910146,,
,3831.0,1282.0,6291.0,1166.0,2287.0,2458.0,2000.0,,,,-0.638061898382258,-2.91148323344841,-0.799633683596263,,-4.990690016394532,,
,3827.0,1280.0,6291.0,1164.0,2290.0,2468.0,2016.0,,,,-0.638156815248781,-2.91150288371152,-0.800451102884264,,-5.066205359925728,,
,3831.0,1284.0,6299.0,1166.0,2260.0,2470.0,2012.0,,,,-0.638690857705811,-2.91150924758207,-0.800638943516044,,-5.126274871814189,,
,3833.0,1285.0,6305.0,1170.0,2260.0,2454.0,2000.0,,,,-0.63932566372835,-2.91148534384408,-0.801223606928501,,-5.158290642800807,,
,3835.0,1286.0,6305.0,1171.0,2267.0,2457.0,1999.0,,,,-0.63979630915902,-2.91153184471489,-0.800396634905135,,-5.148411702277736,,
,3837.0,1285.0,6308.0,1171.0,2267.0,2480.0,1995.0,,,,-0.639854172623379,-2.91149366628539,-0.801549070277273,,-5.082446368481171,,
,3840.0,1288.0,6310.0,1170.0,2273.0,2469.0,1995.0,,,,-0.639682091566657,-2.91155309057641,-0.801506955107895,,-4.9468152736220246,,
,3842.0,1289.0,6317.0,1175.0,2290.0,2468.0,2003.0,,,,-0.639921897935946,-2.91173272131358,-0.802031787890278,,-4.729508872537242,,
,3845.0,1289.0,6320.0,1174.0,2287.0,2467.0,2012.0,,,,-0.640309296680593,-2.91159882005349,-0.801499802332063,,-4.420955708418974,,
,3845.0,1289.0,6322.0,1175.0,2276.0,2455.0,2017.0,,,,-0.640879704236293,-2.91171278634108,-0.801439441581441,,-4.0147284462173465,,
,3849.0,1291.0,6323.0,1175.0,2286.0,2454.0,2010.0,,,,-0.640396295275922,-2.91155010617402,-0.801563562474245,,-3.5080320347047182,,
,3851.0,1295.0,6328.0,1177.0,2279.0,2458.0,1992.0,,,,-0.641116314647465,-2.91177392961934,-0.802422209584914,,-2.901941344002566,,
,3854.0,1297.0,6331.0,1180.0,2280.0,2465.0,1996.0,,,,-0.641490848193947,-2.9117851272895,-0.801206051311691,,-2.2013829659584934,,
,3854.0,1297.0,6337.0,1180.0,2264.0,2462.0,1997.0,,,,-0.64181815794408,-2.91192478830454,-0.802441102448543,,-1.4148847810102576,,
,3856.0,1295.0,6339.0,1180.0,2259.0,2457.0,1997.0,,,,-0.642314790122891,-2.91200691103012,-0.803128688605215,,-0.554143022683947,,
,3859.0,1300.0,6344.0,1181.0,2255.0,2481.0,2005.0,,,,-0.643631000365443,-2.91223264880045,-0.803202611981914,,0.3665249697002774,,
,3862.0,1299.0,6344.0,1182.0,2278.0,2477.0,1997.0,,,,-0.644180786666982,-2.91220324291922,-0.804516685709808,,1.3307672501849128,,
,3863.0,1299.0,6348.0,1183.0,2282.0,2477.0,1996.0,,,,-0.645027033055584,-2.91242830468985,-0.804873864295249,,2.3207544159376687,,
,3866.0,1302.0,6353.0,1183.0,2268.0,2473.0,1999.0,,,,-0.6459133530285,-2.91240957554248,-0.805052433288978,,3.3176575379529107,,
,3867.0,1301.0,6355.0,1183.0,2263.0,2468.0,2003.0,,,,-0.647630518891757,-2.91277557248038,-0.807188600112828,,4.302024299612827,,
,3869.0,1305.0,6360.0,1187.0,2271.0,2462.0,2008.0,,,,-0.647015360624753,-2.91282786084352,-0.808137226390643,,5.254061047560124,,
,3870.0,1305.0,6364.0,1188.0,2269.0,2467.0,2001.0,,,,-0.648413637752276,-2.91312917656784,-0.809264246905886,,6.1538555624221045,,
,3872.0,1305.0,6365.0,1188.0,2288.0,2479.0,2024.0,,,,-0.649450786855381,-2.91336695949756,-0.809505094645539,,6.981594173734372,,
,3875.0,1305.0,6366.0,1190.0,2282.0,2467.0,2016.0,,,,-0.650004729597524,-2.91346320660845,-0.810187419815021,,7.717834384628599,,
,3874.0,1307.0,6370.0,1192.0,2261.0,2463.0,2012.0,,,,-0.650873221539676,-2.91354498781162,-0.810640259233564,,8.343889384393657,,
,3873.0,1305.0,6371.0,1191.0,2259.0,2467.0,2005.0,,,,-0.651817749317535,-2.91368392517959,-0.811754877790245,,8.842363863067149,,
,3868.0,1303.0,6366.0,1188.0,2253.0,2462.0,2008.0,,,,-0.652298177233837,-2.91361509012102,-0.81274843345942,,9.1978527288848,,
,3860.0,1298.0,6354.0,1184.0,2269.0,2462.0,2006.0,,,,-0.653077738168903,-2.91378946286782,-0.813547640615071,,9.397778742820039,,
,3851.0,1294.0,6343.0,1180.0,2271.0,2461.0,2008.0,,,,-0.653660250036495,-2.91405226329661,-0.813587446774059,,9.433306749192603,,
,3845.0,1288.0,6322.0,1174.0,2260.0,2456.0,2003.0,,,,-0.654304115456444,-2.91399337606155,-0.814712532408257,,9.30023753990804,,
,3834.0,1286.0,6301.0,1171.0,2259.0,2455.0,2005.0,,,,-0.655082254707694,-2.91415186308422,-0.815004884919997,,8.999760362412697,,
,3825.0,1282.0,6275.0,1165.0,2274.0,2457.0,2011.0,,,,-0.65606217407263,-2.91419818670137,-0.815817568433169,,8.538936027314145,,
,3817.0,1278.0,6252.0,1161.0,2267.0,2464.0,1999.0,,,,-0.656332402377451,-2.91430814506629,-0.816317291195806,,7.930797168291944,,
,3811.0,1274.0,6233.0,1158.0,2288.0,2459.0,1995.0,,,,-0.656487711488982,-2.91438883599514,-0.817101331079534,,7.1939899763463275,,
,3801.0,1271.0,6214.0,1154.0,2276.0,2457.0,1992.0,,,,-0.657195279706045,-2.91461224209229,-0.816202673305012,,6.3519392607612755,,
,3792.0,1267.0,6195.0,1151.0,2271.0,2466.0,2001.0,,,,-0.657133359923273,-2.91445941066368,-0.816303219750889,,5.431586700867228,,
,3788.0,1262.0,6181.0,1146.0,2277.0,2479.0,1996.0,,,,-0.656985249973153,-2.91447644244635,-0.816930086062433,,4.46181692664041,,
,3783.0,1262.0,6167.0,1143.0,2266.0,2478.0,2001.0,,,,-0.65737331225218,-2.9144618553568,-0.816943473082888,,3.471733369006955,,
,3777.0,1261.0,6158.0,1140.0,2294.0,2476.0,1998.0,,,,-0.656901388833652,-2.91456768648,-0.816639724932812,,2.4889656135211116,,
,3776.0,1258.0,6147.0,1138.0,2293.0,2484.0,1996.0,,,,-0.657147558522581,-2.91462652792702,-0.81632902965204,,1.5381795043317121,,
,3771.0,1254.0,6143.0,1136.0,2274.0,2489.0,1991.0,,,,-0.657572064361903,-2.91455172781185,-0.816087414631858,,0.6399250317354199,,
,3769.0,1253.0,6136.0,1134.0,2267.0,2478.0,2004.0,,,,-0.657042389717397,-2.91467679429198,-0.816221374893159,,-0.19009544862037792,,
,3769.0,1253.0,6134.0,1134.0,2294.0,2466.0,1994.0,,,,-0.657227432162496,-2.91454918564256,-0.816979721866302,,-0.9413138229741126,,
,3767.0,1253.0,6132.0,1133.0,2296.0,2465.0,1992.0,,,,-0.656420336467269,-2.91463938449805,-0.816120259912128,,-1.6081659940606288,,
,3768.0,1254.0,6128.0,1133.0,2285.0,2470.0,2004.0,,,,-0.656346588206117,-2.91457189890069,-0.816049376262949,,-2.189615134645154,,
,3765.0,1251.0,6132.0,1132.0,2254.0,2461.0,1998.0,,,,-0.655889528746135,-2.91447203098558,-0.816156841039208,,-2.6884261485902883,,
,3768.0,1255.0,6133.0,1134.0,2273.0,2461.0,1996.0,,,,-0.654998762187418,-2.91443712512322,-0.815733582123583,,-3.1103011759179764,,
,3768.0,1253.0,6132.0,1135.0,2283.0,2462.0,1999.0,,,,-0.655053734217684,-2.9142868300641,-0.815498865201786,,-3.4629837189507864,,
,3768.0,1254.0,6135.0,1135.0,2294.0,2466.0,2006.0,,,,-0.65440018956431,-2.914067391934,-0.815418852306883,,-3.755424488358871,,
,3767.0,1253.0,6135.0,1132.0,2286.0,2470.0,1999.0,,,,-0.654143661452096,-2.91418285427253,-0.81449744186778,,-3.9970783842488733,,
,3769.0,1254.0,6138.0,1134.0,2276.0,2467.0,2003.0,,,,-0.653769388286497,-2.91424034380765,-0.814342155537554,,-4.197372547231673,,
,3773.0,1255.0,6138.0,1136.0,2278.0,2461.0,2013.0,,,,-0.654279485718095,-2.9142392488494,-0.81435128534868,,-4.365353580976017,,
,3772.0,1256.0,6143.0,1134.0,2275.0,2458.0,2007.0,,,,-0.654799817016835,-2.91427389256261,-0.815571324381935,,-4.509491439524748,,
,3771.0,1254.0,6144.0,1133.0,2254.0,2465.0,1997.0,,,,-0.655194205307547,-2.91422408399039,-0.81567378454964,,-4.6375921898088865,,
,3773.0,1256.0,6145.0,1135.0,2251.0,2461.0,2000.0,,,,-0.655027547936856,-2.9143146989293,-0.814229245584939,,-4.75675636983339,,
,3773.0,1257.0,6148.0,1138.0,2266.0,2455.0,2007.0,,,,-0.655547567953937,-2.91439567084244,-0.814535267034582,,-4.873317415684063,,
,3777.0,1257.0,6152.0,1139.0,2280.0,2461.0,1999.0,,,,-0.655370416944903,-2.91444249723306,-0.814786695458798,,-4.992706161632347,,
,3779.0,1259.0,6155.0,1137.0,2281.0,2465.0,1993.0,,,,-0.655405900100389,-2.91436416539282,-0.814600873318667,,-5.119209789892611,,
,3779.0,1257.0,6156.0,1136.0,2280.0,2454.0,2006.0,,,,-0.655459724362258,-2.91424413659987,-0.815447426453572,,-5.25562184492202,,
,3778.0,1260.0,6160.0,1139.0,2257.0,2462.0,1997.0,,,,-0.655454217705429,-2.91426439507799,-0.814710016531673,,-5.402809007416369,,
,3783.0,1260.0,6164.0,1142.0,2259.0,2469.0,2007.0,,,,-0.65581823397806,-2.9143757932785,-0.81404639878004,,-5.559246177823202,,
,3783.0,1262.0,6166.0,1142.0,2273.0,2469.0,2005.0,,,,-0.655770051033064,-2.91424554294297,-0.815296336086755,,-5.720590891507178,,
,3782.0,1261.0,6167.0,1140.0,2271.0,2454.0,1997.0,,,,-0.655774774313524,-2.91439103883962,-0.815219757523336,,-5.879378606418967,,
,3785.0,1261.0,6170.0,1140.0,2272.0,2458.0,1997.0,,,,-0.655835841278848,-2.91435185544661,-0.814957563100415,,-6.024919938842538,,
,3787.0,1263.0,6174.0,1142.0,2282.0,2468.0,2010.0,,,,-0.655274533196526,-2.91424671830308,-0.815006754598464,,-6.1434682760884165,,
,3786.0,1263.0,6175.0,1142.0,2293.0,2471.0,2011.0,,,,-0.654991852111251,-2.91420013853746,-0.814838815011325,,-6.218701478909427,,
2025-07-01 22:25:26,3788.0,1262.0,6176.0,1144.0,2276.0,2481.0,2012.0,,,2025/07/01 10:25:26 PM,-0.654758185605916,-2.91425128969984,-0.814426366257219,,-6.232526537006861,,
,3785.0,1261.0,6174.0,1141.0,2284.0,2477.0,2025.0,,,,-0.655094907974063,-2.91429606024972,-0.814683180396242,,-6.166175016372504,,
,3785.0,1263.0,6176.0,1143.0,2260.0,2466.0,2008.0,,,,-0.654972794419851,-2.9143085646555,-0.816028505457869,,-6.001515474784398,,
,3790.0,1263.0,6180.0,1144.0,2258.0,2462.0,2011.0,,,,-0.654971284410031,-2.91427256519662,-0.815433099206155,,-5.722473110512337,,
,3787.0,1263.0,6178.0,1142.0,2259.0,2466.0,2004.0,,,,-0.654873242106661,-2.91445310536124,-0.814034470085263,,-5.3164233778527485,,
,3788.0,1261.0,6175.0,1141.0,2278.0,2465.0,2011.0,,,,-0.655228765577057,-2.91437859355718,-0.815738392712363,,-4.775420897105979,,
,3785.0,1263.0,6178.0,1143.0,2275.0,2460.0,2015.0,,,,-0.654863274306739,-2.9142757213181,-0.814970150749258,,-4.097140440683301,,
,3785.0,1264.0,6173.0,1141.0,2258.0,2460.0,2011.0,,,,-0.655158015307242,-2.91430027863765,-0.815527908216732,,-3.285440946826098,,
,3787.0,1260.0,6177.0,1143.0,2250.0,2463.0,2009.0,,,,-0.654795400429051,-2.91433298556644,-0.814460834190813,,-2.350509497462841,,
,3787.0,1261.0,6174.0,1140.0,2261.0,2457.0,2011.0,,,,-0.654067376885105,-2.91446066324457,-0.814875976809692,,-1.3085905572155012,,
,3786.0,1261.0,6173.0,1142.0,2270.0,2453.0,2013.0,,,,-0.654689750778493,-2.91436696892457,-0.814543010602512,,-0.18134753688960795,,
,3788.0,1262.0,6176.0,1143.0,2239.0,2449.0,2015.0,,,,-0.654532504110908,-2.91443646879224,-0.814232708926865,,1.005067215766528,,
,3789.0,1262.0,6173.0,1145.0,2248.0,2455.0,2018.0,,,,-0.654296155027644,-2.91443457733851,-0.814351494867411,,2.2211439612140085,,
,3785.0,1262.0,6174.0,1142.0,2247.0,2452.0,2011.0,,,,-0.655000258657639,-2.91446002058999,-0.814681354627857,,3.4352588259996932,,
,3790.0,1264.0,6176.0,1140.0,2258.0,2456.0,2009.0,,,,-0.653833360512923,-2.91450628032716,-0.81367575926145,,4.614950063689073,,
,3786.0,1264.0,6176.0,1145.0,2262.0,2450.0,2008.0,,,,-0.653434853627715,-2.91430430659959,-0.814167986347799,,5.728166138225335,,
,3791.0,1263.0,6181.0,1144.0,2278.0,2452.0,2003.0,,,,-0.653497980795697,-2.91448335551205,-0.813998314285207,,6.7444435594851,,
,3789.0,1264.0,6182.0,1143.0,2273.0,2461.0,2017.0,,,,-0.653517956226199,-2.9143560116735,-0.813810579463658,,7.635988751941914,,
,3789.0,1266.0,6182.0,1142.0,2285.0,2463.0,2031.0,,,,-0.65351580093733,-2.91434397873093,-0.813194710070567,,8.378648770405643,,
,3788.0,1263.0,6185.0,1144.0,2292.0,2469.0,2022.0,,,,-0.653656708407247,-2.91437300213431,-0.813218025465265,,8.952759085623974,,
,3791.0,1265.0,6185.0,1147.0,2291.0,2467.0,2011.0,,,,-0.653671550267311,-2.91436862033869,-0.814140373853872,,9.343853452565218,,
,3795.0,1265.0,6189.0,1147.0,2291.0,2481.0,2007.0,,,,-0.653319400356496,-2.91429923236313,-0.813910793534518,,9.54321318367157,,
,3795.0,1267.0,6196.0,1149.0,2327.0,2484.0,2005.0,,,,-0.65284905648405,-2.91425664667083,-0.813337608816666,,9.54822436328519,,
,3796.0,1268.0,6195.0,1147.0,2314.0,2487.0,1995.0,,,,-0.652934693997874,-2.91425530292144,-0.812889420844036,,9.362505686858293,,
,3796.0,1268.0,6199.0,1149.0,2270.0,2474.0,1972.0,,,,-0.652223324700102,-2.91417979998002,-0.812900462194122,,8.99577071090149,,
,3800.0,1271.0,6204.0,1152.0,2254.0,2485.0,1967.0,,,,-0.652485699904769,-2.9140810858119,-0.811983284083236,,8.463399525507768,,
,3804.0,1272.0,6209.0,1152.0,2253.0,2489.0,1967.0,,,,-0.652151534974062,-2.91408659059819,-0.813006140471386,,7.7857171453281175,,
,3804.0,1271.0,6209.0,1152.0,2273.0,2475.0,1979.0,,,,-0.651811763873598,-2.91402157140049,-0.812754342914778,,6.987006506617331,,
,3808.0,1272.0,6215.0,1152.0,2244.0,2463.0,1975.0,,,,-0.651864839735783,-2.91395621829506,-0.812184787328448,,6.094316208919881,,
,3808.0,1274.0,6219.0,1156.0,2240.0,2464.0,1989.0,,,,-0.651205803879131,-2.91408950101932,-0.81158624088374,,5.136148509966364,,
,3810.0,1274.0,6223.0,1153.0,2232.0,2464.0,1992.0,,,,-0.651164099159138,-2.91404776155432,-0.812028656271617,,4.141124805872089,,
,3812.0,1275.0,6226.0,1156.0,2253.0,2459.0,1995.0,,,,-0.651309199137334,-2.91393720720442,-0.811765023032727,,3.136722000653824,,
,3814.0,1278.0,6231.0,1159.0,2256.0,2457.0,2002.0,,,,-0.65220003664862,-2.91398017274261,-0.811631378798331,,2.1481571481253754,,
,3815.0,1277.0,6237.0,1161.0,2235.0,2456.0,2003.0,,,,-0.651313093683674,-2.91382427073945,-0.812125194110801,,1.197475897220651,,
,3817.0,1277.0,6239.0,1159.0,2240.0,2458.0,2009.0,,,,-0.651643708907572,-2.91391743740924,-0.812675989955157,,0.30287874047417335,,
,3817.0,1281.0,6242.0,1163.0,2244.0,2472.0,2022.0,,,,-0.650669082405684,-2.91382839466615,-0.811773696671024,,-0.5216987010476508,,
,3820.0,1279.0,6247.0,1163.0,2276.0,2459.0,2023.0,,,,-0.650845844975956,-2.91380926206989,-0.81129823163935,,-1.26674918345565,,
,3821.0,1280.0,6253.0,1165.0,2268.0,2456.0,2028.0,,,,-0.650360480452893,-2.91390240715319,-0.811224400899984,,-1.9271115409073465,,
,3826.0,1284.0,6257.0,1164.0,2265.0,2468.0,2025.0,,,,-0.650084038567694,-2.91358441835702,-0.811789446172277,,-2.5016658216259677,,
,3827.0,1282.0,6256.0,1162.0,2269.0,2470.0,2023.0,,,,-0.650352147352722,-2.91369544380138,-0.811019384862348,,-2.992841756670602,,
,3827.0,1284.0,6262.0,1163.0,2279.0,2474.0,2010.0,,,,-0.649951277012795,-2.91373929067933,-0.810405374229337,,-3.4059869542758814,,
,3829.0,1286.0,6266.0,1167.0,2277.0,2482.0,2006.0,,,,-0.649814344013862,-2.91360785667296,-0.811040208609165,,-3.748647781163823,,
,3835.0,1286.0,6269.0,1168.0,2284.0,2469.0,2000.0,,,,-0.649435329743709,-2.91354929073328,-0.810893605901254,,-4.029818002324559,,
,3835.0,1289.0,6273.0,1170.0,2291.0,2469.0,2003.0,,,,-0.649494898225055,-2.91368063827065,-0.810623981368307,,-4.259208332568196,,
,3836.0,1288.0,6276.0,1169.0,2272.0,2477.0,1996.0,,,,-0.649146558629099,-2.91369071372014,-0.811523123805981,,-4.446584660611768,,
,3839.0,1287.0,6280.0,1171.0,2295.0,2476.0,1999.0,,,,-0.648523131820406,-2.91363881250104,-0.811131184733565,,-4.601214112356742,,
,3841.0,1288.0,6284.0,1171.0,2260.0,2466.0,2002.0,,,,-0.648202907197502,-2.9136421781324,-0.810685801696273,,-4.731446637249616,,
,3844.0,1291.0,6289.0,1170.0,2258.0,2468.0,2005.0,,,,-0.648236786192891,-2.91377428915528,-0.810614843360707,,-4.844446148250529,,
,3845.0,1291.0,6292.0,1171.0,2266.0,2477.0,2009.0,,,,-0.64778512576777,-2.91359497971845,-0.810019741888785,,-4.94607044356176,,
,3845.0,1294.0,6295.0,1174.0,2263.0,2474.0,2010.0,,,,-0.647581425882046,-2.91349551509698,-0.809486850626927,,-5.0408842469974005,,
,3850.0,1295.0,6300.0,1176.0,2228.0,2464.0,2008.0,,,,-0.647617415353497,-2.91349529603713,-0.809583836285503,,-5.132275757095344,,
,3852.0,1296.0,6306.0,1177.0,2231.0,2463.0,2008.0,,,,-0.647710503532999,-2.91348705589974,-0.810178706092545,,-5.222635322766192,,
,3852.0,1296.0,6308.0,1178.0,2233.0,2459.0,2011.0,,,,-0.648228770311468,-2.91342599790347,-0.809845801060011,,-5.313547155007442,,
,3856.0,1297.0,6312.0,1176.0,2242.0,2462.0,2009.0,,,,-0.647414192408996,-2.91352557463806,-0.809563048350936,,-5.405943979898066,,
,3857.0,1297.0,6315.0,1180.0,2255.0,2473.0,2021.0,,,,-0.64735432356398,-2.91350450380337,-0.809014217900891,,-5.5001824812911035,,
,3860.0,1299.0,6322.0,1182.0,2241.0,2463.0,2019.0,,,,-0.646958329292233,-2.91338065253639,-0.809347316203954,,-5.5960142412365865,,
,3864.0,1303.0,6327.0,1184.0,2240.0,2462.0,2020.0,,,,-0.646679403648251,-2.91337187132538,-0.80787191620366,,-5.692449656597053,,
,3868.0,1304.0,6330.0,1185.0,2244.0,2454.0,2017.0,,,,-0.646084468290657,-2.9133197901469,-0.808910797910681,,-5.787536286388532,,
,3868.0,1303.0,6333.0,1184.0,2237.0,2464.0,2008.0,,,,-0.645978075042718,-2.91310677833053,-0.808021916676223,,-5.878093762347479,,
,3872.0,1305.0,6339.0,1187.0,2246.0,2466.0,1999.0,,,,-0.646266440854395,-2.91327728599098,-0.808261354201141,,-5.959461536225384,,
,3875.0,1307.0,6344.0,1190.0,2248.0,2492.0,2011.0,,,,-0.646248064136034,-2.91313476165921,-0.808900621419042,,-6.025321468165349,,
,3876.0,1310.0,6348.0,1191.0,2250.0,2488.0,2017.0,,,,-0.646052165626671,-2.91321404521935,-0.80810363950155,,-6.067653804636376,,
,3878.0,1311.0,6349.0,1190.0,2248.0,2485.0,2000.0,,,,-0.646456308111146,-2.91313284725,-0.808349012976628,,-6.076872619248288,,
,3881.0,1310.0,6357.0,1193.0,2237.0,2474.0,1996.0,,,,-0.645185974545339,-2.91308903218181,-0.808355663896757,,-6.042166460944301,,
,3884.0,1313.0,6358.0,1195.0,2254.0,2476.0,1999.0,,,,-0.645278810999379,-2.91314592485234,-0.807964059255878,,-5.952043957460481,,
,3886.0,1313.0,6361.0,1197.0,2253.0,2484.0,2009.0,,,,-0.645945189902222,-2.91298796877349,-0.807786363585444,,-5.795055459818167,,
,3889.0,1315.0,6367.0,1195.0,2252.0,2502.0,2011.0,,,,-0.645703690728894,-2.91308306448937,-0.807770713234693,,-5.560633912442114,,
,3891.0,1313.0,6371.0,1198.0,2254.0,2496.0,2007.0,,,,-0.645803923688699,-2.91304731058496,-0.807651600844012,,-5.239974446308096,,
,3895.0,1320.0,6376.0,1201.0,2262.0,2476.0,2006.0,,,,-0.646084117698513,-2.91317736439156,-0.807660638018013,,-4.82685610163438,,
,3895.0,1321.0,6377.0,1201.0,2251.0,2480.0,2008.0,,,,-0.645660713940333,-2.91312508989172,-0.808571989380442,,-4.318304182027316,,
,3899.0,1320.0,6386.0,1199.0,2265.0,2483.0,2008.0,,,,-0.645883281598593,-2.91318108570311,-0.808677742529821,,-3.715001691374291,,
,3900.0,1320.0,6384.0,1200.0,2259.0,2481.0,2010.0,,,,-0.645681019457276,-2.91310849553759,-0.808632646254065,,-3.021385302655245,,
,3901.0,1321.0,6388.0,1201.0,2280.0,2477.0,2011.0,,,,-0.645972688811318,-2.91330283184242,-0.808892610238317,,-2.245403609315448,,
,3896.0,1320.0,6389.0,1204.0,2286.0,2466.0,2005.0,,,,-0.647093029184397,-2.91341464514703,-0.809180778269936,,-1.397966067731489,,
,3895.0,1316.0,6383.0,1202.0,2281.0,2463.0,2008.0,,,,-0.647427628423214,-2.91333068705118,-0.809688627808267,,-0.49215943929513417,,
,3884.0,1313.0,6375.0,1193.0,2248.0,2470.0,2010.0,,,,-0.648623107559744,-2.91347927478904,-0.810294012928317,,0.45765588843205623,,
,3877.0,1308.0,6362.0,1191.0,2247.0,2469.0,2009.0,,,,-0.6501693935652,-2.91392982983531,-0.810697672629114,,1.436741518463106,,
,3868.0,1304.0,6343.0,1187.0,2247.0,2479.0,2015.0,,,,-0.650825462971022,-2.91391438914302,-0.812311675837653,,2.4307461763970304,,
,3859.0,1297.0,6322.0,1183.0,2245.0,2481.0,2013.0,,,,-0.651295378454552,-2.91420473449343,-0.812478744201319,,3.426242688413583,,
,3848.0,1294.0,6300.0,1179.0,2249.0,2467.0,2007.0,,,,-0.651922328289975,-2.914222763491,-0.812698914927451,,4.410977753104663,,
,3840.0,1290.0,6276.0,1174.0,2240.0,2461.0,2004.0,,,,-0.652465219121687,-2.9143268528583,-0.813261476645451,,5.373821736731729,,
,3835.0,1287.0,6257.0,1169.0,2231.0,2464.0,2010.0,,,,-0.653254971125108,-2.91445759541417,-0.814304981880921,,6.304453141667975,,
,3824.0,1282.0,6237.0,1167.0,2243.0,2465.0,2011.0,,,,-0.653483527393771,-2.91459904162664,-0.814754521817811,,7.192854565827497,,
,3818.0,1278.0,6220.0,1162.0,2250.0,2473.0,2001.0,,,,-0.654169375293493,-2.91474514743554,-0.816283008647969,,8.028728292803299,,
,3810.0,1273.0,6203.0,1156.0,2238.0,2487.0,1995.0,,,,-0.654019172592298,-2.91482087495914,-0.816231135299847,,8.800956033087012,,
,3809.0,1273.0,6195.0,1155.0,2233.0,2476.0,2004.0,,,,-0.654182662532001,-2.91492595799959,-0.816605457849951,,9.497226471353382,,
,3802.0,1274.0,6184.0,1153.0,2235.0,2465.0,2015.0,,,,-0.654661458432007,-2.91483326505352,-0.816619923806741,,10.103935631497333,,
,3799.0,1267.0,6175.0,1150.0,2242.0,2458.0,2013.0,,,,-0.654040521075099,-2.91483542146559,-0.815388659423525,,10.606430111389672,,
,3795.0,1267.0,6170.0,1150.0,2241.0,2469.0,2003.0,,,,-0.654033443372012,-2.91478123334596,-0.815218552120421,,10.989615787907557,,
,3793.0,1267.0,6167.0,1147.0,2246.0,2468.0,2015.0,,,,-0.653235673361605,-2.91484962672504,-0.815956454668041,,11.238900600330457,,
,3793.0,1266.0,6167.0,1147.0,2253.0,2466.0,2020.0,,,,-0.653494631162189,-2.91482240031181,-0.815406774990269,,11.34138653247872,,
,3791.0,1270.0,6164.0,1146.0,2259.0,2470.0,2009.0,,,,-0.653275465721227,-2.91484022559293,-0.815264416058546,,11.287179982428466,,
,3789.0,1266.0,6163.0,1146.0,2252.0,2464.0,1996.0,,,,-0.653555894344984,-2.91483347620771,-0.815354330285648,,11.070657962649745,,
,3791.0,1265.0,6165.0,1146.0,2264.0,2461.0,2001.0,,,,-0.65395873969683,-2.9148351800096,-0.81587861600701,,10.691516280283496,,
,3790.0,1266.0,6164.0,1149.0,2257.0,2461.0,1996.0,,,,-0.653328069852784,-2.91484328566224,-0.815906390000157,,10.155440276260666,,
,3792.0,1265.0,6166.0,1148.0,2251.0,2476.0,1995.0,,,,-0.653541039625438,-2.91484302078691,-0.815315893057518,,9.47428080592664,,
,3792.0,1267.0,6170.0,1147.0,2255.0,2469.0,2001.0,,,,-0.653471211042573,-2.91497750071941,-0.815360784348167,,8.665683522285088,,
,3790.0,1266.0,6172.0,1144.0,2256.0,2463.0,2005.0,,,,-0.653413494922839,-2.91484531315781,-0.816478429411666,,7.752196396381259,,
,3792.0,1268.0,6175.0,1147.0,2252.0,2463.0,1995.0,,,,-0.653442888013583,-2.91481092615805,-0.815713060332559,,6.759952572429818,,
,3794.0,1268.0,6177.0,1147.0,2263.0,2464.0,2008.0,,,,-0.653043987093722,-2.91475626727544,-0.815757973875235,,5.717078307978063,,
,3796.0,1270.0,6180.0,1147.0,2264.0,2466.0,2013.0,,,,-0.652532978769625,-2.91494563571828,-0.815182167451703,,4.652000612013715,,
,3798.0,1269.0,6181.0,1148.0,2260.0,2462.0,2009.0,,,,-0.652521402847748,-2.91464235604407,-0.815520639011026,,3.5918259931759944,,
,3797.0,1270.0,6184.0,1148.0,2252.0,2469.0,2002.0,,,,-0.652259735361723,-2.91467871886443,-0.814374222776244,,2.56093603832003,,
,3798.0,1270.0,6190.0,1150.0,2227.0,2470.0,2003.0,,,,-0.651452761536905,-2.91450360911302,-0.813948582405941,,1.5799052691814264,,
,3800.0,1269.0,6193.0,1151.0,2230.0,2475.0,2002.0,,,,-0.651786242517026,-2.91453884081968,-0.813582392578193,,0.6647997649575372,,
,3801.0,1271.0,6198.0,1151.0,2242.0,2467.0,2009.0,,,,-0.650781097215724,-2.91432781193444,-0.813340009642295,,-0.1731314140539577,,
,3805.0,1272.0,6200.0,1152.0,2223.0,2471.0,2011.0,,,,-0.651236536630528,-2.91438739576358,-0.814561556376164,,-0.9273998234779726,,
,3805.0,1271.0,6205.0,1155.0,2261.0,2468.0,2010.0,,,,-0.651199361332089,-2.91440328607846,-0.81445007157956,,-1.5959132974201578,,
,3809.0,1273.0,6210.0,1153.0,2242.0,2462.0,2018.0,,,,-0.651124607058849,-2.91426144555429,-0.814228615030554,,-2.180378002637972,,
,3807.0,1276.0,6215.0,1153.0,2235.0,2466.0,2021.0,,,,-0.650574850937529,-2.91435019248673,-0.814042500485388,,-2.6855476371668394,,
,3810.0,1273.0,6214.0,1151.0,2213.0,2465.0,2009.0,,,,-0.650386470478,-2.91431243839246,-0.814152188099285,,-3.1183985342309595,,
,3809.0,1274.0,6220.0,1155.0,2235.0,2475.0,2015.0,,,,-0.650349306047422,-2.91415288171826,-0.81306946519002,,-3.487301703198208,,
,3811.0,1277.0,6222.0,1156.0,2246.0,2468.0,2019.0,,,,-0.650070776682334,-2.91407189801836,-0.813329341130846,,-3.801251598595605,,
,3813.0,1279.0,6226.0,1157.0,2241.0,2463.0,2017.0,,,,-0.649808542950615,-2.9141321688383,-0.811782140614046,,-4.069198235399385,,
,3816.0,1276.0,6229.0,1156.0,2233.0,2461.0,2010.0,,,,-0.649859907810013,-2.91405563310896,-0.81263115108628,,-4.299515157202169,,
,3813.0,1277.0,6231.0,1159.0,2245.0,2466.0,2007.0,,,,-0.649311645974499,-2.91410528351957,-0.813005367130148,,-4.499621188049489,,
,3814.0,1278.0,6232.0,1157.0,2229.0,2466.0,2024.0,,,,-0.649093707542038,-2.91398064133072,-0.811785140285782,,-4.675758994510493,,
,3815.0,1279.0,6234.0,1159.0,2233.0,2464.0,2028.0,,,,-0.649061451957096,-2.91406329010463,-0.811039075430205,,-4.832918444139138,,
,3812.0,1278.0,6234.0,1160.0,2234.0,2467.0,2032.0,,,,-0.649107864285828,-2.91394000423017,-0.811462961156843,,-4.974878320367689,,
,3815.0,1277.0,6233.0,1157.0,2229.0,2462.0,2020.0,,,,-0.64886527947915,-2.91400551514511,-0.810888705110845,,-5.10432791620351,,
,3816.0,1276.0,6235.0,1161.0,2225.0,2462.0,2009.0,,,,-0.648049622633757,-2.91404576257292,-0.810847481516947,,-5.223023161084799,,
,3816.0,1278.0,6236.0,1161.0,2220.0,2460.0,2012.0,,,,-0.647800585053053,-2.9140823877068,-0.810670923928043,,-5.331932864262754,,
,3815.0,1279.0,6237.0,1160.0,2218.0,2463.0,2008.0,,,,-0.64785400741749,-2.91387658783015,-0.81016976412375,,-5.431339989919759,,
,3816.0,1277.0,6238.0,1159.0,2226.0,2466.0,2010.0,,,,-0.647508805655711,-2.91392605492144,-0.810533403668145,,-5.520878356106253,,
,3816.0,1278.0,6236.0,1161.0,2224.0,2468.0,2002.0,,,,-0.647166602625774,-2.91393926816382,-0.81034368487728,,-5.5995027510335005,,
,3816.0,1279.0,6238.0,1159.0,2230.0,2480.0,2001.0,,,,-0.646885239966047,-2.91392868246624,-0.808651292243003,,-5.665406362109626,,
,3818.0,1277.0,6239.0,1161.0,2226.0,2480.0,2005.0,,,,-0.646657399567042,-2.91380567182605,-0.809372038686384,,-5.715911211419118,,
,3815.0,1279.0,6236.0,1160.0,2239.0,2468.0,2003.0,,,,-0.646396876726833,-2.91386583971969,-0.808701167194632,,-5.747364039175693,,
2025-07-01 22:25:27,3817.0,1280.0,6240.0,1159.0,2262.0,2468.0,2001.0,,,2025/07/01 10:25:27 PM,-0.646277641395759,-2.91365530991726,-0.808778562251632,,-5.755071706784402,,
,3821.0,1281.0,6244.0,1161.0,2272.0,2472.0,2010.0,,,,-0.646195863508216,-2.91357237651673,-0.808844954489148,,-5.733307012547151,,
,3821.0,1280.0,6244.0,1162.0,2260.0,2482.0,2004.0,,,,-0.646453989424222,-2.91360094444174,-0.808283083031114,,-5.675408379706597,,
,3820.0,1281.0,6247.0,1164.0,2233.0,2468.0,1992.0,,,,-0.646678227924718,-2.91358414480202,-0.808223479902717,,-5.5739861092543315,,
,3823.0,1281.0,6247.0,1162.0,2235.0,2465.0,2004.0,,,,-0.646534104663095,-2.91355744103415,-0.809009544821206,,-5.421235162704363,,
,3824.0,1282.0,6250.0,1163.0,2235.0,2472.0,2002.0,,,,-0.646232159810875,-2.91360659520993,-0.808466912640676,,-5.209341446964543,,
,3825.0,1283.0,6253.0,1166.0,2252.0,2474.0,2014.0,,,,-0.646327291709892,-2.91358404199808,-0.807497280050287,,-4.9309569521317895,,
,3824.0,1283.0,6259.0,1165.0,2246.0,2477.0,2015.0,,,,-0.646358344144864,-2.91356429483765,-0.807655530873975,,-4.579710008901494,,
,3827.0,1281.0,6261.0,1164.0,2231.0,2474.0,2001.0,,,,-0.646150297148932,-2.91363255071913,-0.807374650817672,,-4.150711140031566,,
,3831.0,1286.0,6262.0,1166.0,2250.0,2474.0,2000.0,,,,-0.646128998889733,-2.91340306312463,-0.807449203160632,,-3.641013500829364,,
,3833.0,1286.0,6267.0,1170.0,2242.0,2471.0,1999.0,,,,-0.645447453695094,-2.91332816090244,-0.806243675425167,,-3.049991214921637,,
,3835.0,1288.0,6271.0,1169.0,2247.0,2465.0,2004.0,,,,-0.645441923253283,-2.91330752468608,-0.806821663732273,,-2.3796095534625863,,
,3836.0,1287.0,6273.0,1170.0,2233.0,2479.0,2014.0,,,,-0.645152740601542,-2.91320205275753,-0.806138036193391,,-1.6345756560030966,,
,3840.0,1285.0,6279.0,1171.0,2242.0,2473.0,2011.0,,,,-0.645095892720601,-2.91321249941196,-0.806236328973412,,-0.8223725860277408,,
,3839.0,1291.0,6280.0,1173.0,2247.0,2473.0,2005.0,,,,-0.645103423792114,-2.91342783210198,-0.805562698420906,,0.046811629440709226,,
,3842.0,1290.0,6290.0,1174.0,2238.0,2477.0,2016.0,,,,-0.645827040096312,-2.91304416313029,-0.806177784788186,,0.960246201323552,,
,3844.0,1291.0,6291.0,1174.0,2241.0,2476.0,2024.0,,,,-0.645960663307257,-2.91326685958226,-0.806032737972427,,1.9028997433083814,,
,3847.0,1293.0,6298.0,1172.0,2244.0,2463.0,2018.0,,,,-0.645943888880815,-2.9130567685422,-0.806553827162284,,2.8577547233276426,,
,3852.0,1295.0,6301.0,1179.0,2236.0,2464.0,2012.0,,,,-0.645860022237839,-2.91324551171825,-0.806147634875581,,3.8061889499065003,,
,3852.0,1298.0,6308.0,1181.0,2226.0,2465.0,2013.0,,,,-0.646375472754704,-2.91336399298244,-0.806424211215909,,4.728419832587346,,
,3855.0,1296.0,6313.0,1179.0,2238.0,2473.0,2009.0,,,,-0.646592551989439,-2.91316085727298,-0.805474671472384,,5.6040074022472375,,
,3857.0,1298.0,6315.0,1180.0,2252.0,2461.0,2007.0,,,,-0.646173252481112,-2.9131719891824,-0.805599500950426,,6.412411942561523,,
,3861.0,1300.0,6320.0,1182.0,2254.0,2466.0,2007.0,,,,-0.646222695369225,-2.91305917519376,-0.804918838289623,,7.1336012373905335,,
,3863.0,1301.0,6327.0,1185.0,2242.0,2466.0,1997.0,,,,-0.645881713656723,-2.91313602637012,-0.8048881646416,,7.748700245713296,,
,3867.0,1303.0,6331.0,1185.0,2239.0,2461.0,2003.0,,,,-0.645461993439703,-2.91300893599484,-0.805192168613646,,8.240671994015537,,
,3868.0,1303.0,6337.0,1187.0,2249.0,2469.0,2008.0,,,,-0.645928483818602,-2.91303103710209,-0.804998302392713,,8.595012328748803,,
,3869.0,1304.0,6338.0,1185.0,2250.0,2473.0,1996.0,,,,-0.644844160337839,-2.91307652962953,-0.80423867336061,,8.800432584382404,,
,3873.0,1306.0,6344.0,1189.0,2234.0,2472.0,2004.0,,,,-0.645615312237838,-2.91291036471196,-0.804749410874025,,8.849493178011103,,
,3875.0,1305.0,6349.0,1190.0,2258.0,2460.0,2003.0,,,,-0.64492646040357,-2.91280887264669,-0.804011564465022,,8.739139009248142,,
,3880.0,1309.0,6354.0,1194.0,2270.0,2457.0,2011.0,,,,-0.645080120215921,-2.91288825007787,-0.80459640529589,,8.471077971499827,,
,3881.0,1307.0,6356.0,1191.0,2269.0,2453.0,2021.0,,,,-0.644608181595241,-2.91267434493601,-0.803365441924741,,8.051942167107642,,
,3883.0,1312.0,6361.0,1192.0,2225.0,2467.0,2020.0,,,,-0.644197924609458,-2.91273027793041,-0.803256600056369,,7.4931822330599145,,
,3885.0,1312.0,6367.0,1195.0,2215.0,2462.0,2008.0,,,,-0.643791283910436,-2.91266937168784,-0.803005206710326,,6.810669769519003,,
,3889.0,1312.0,6369.0,1197.0,2216.0,2461.0,2010.0,,,,-0.643641508965408,-2.91270433545642,-0.802829172467326,,6.024017319838956,,
,3886.0,1315.0,6374.0,1197.0,2230.0,2464.0,1996.0,,,,-0.643508761145609,-2.91268326287766,-0.802973436795248,,5.155661430511864,,
,3891.0,1315.0,6379.0,1198.0,2228.0,2459.0,2010.0,,,,-0.643092638206677,-2.912430830462,-0.80219654187986,,4.229782892286407,,
,3895.0,1317.0,6385.0,1202.0,2226.0,2466.0,2010.0,,,,-0.642311416419654,-2.91250222104474,-0.800442177507059,,3.2711533428790003,,
,3894.0,1317.0,6386.0,1201.0,2225.0,2472.0,2005.0,,,,-0.64245052503176,-2.91226625928424,-0.801686823963639,,2.3039980158050897,,
,3899.0,1320.0,6392.0,1203.0,2234.0,2467.0,2008.0,,,,-0.641552670862297,-2.91230500053041,-0.80048846000278,,1.3509535484821882,,
,3902.0,1319.0,6394.0,1202.0,2262.0,2467.0,2015.0,,,,-0.641658148674506,-2.91232355203225,-0.801539751779057,,0.43218199589797013,,
,3903.0,1320.0,6401.0,1204.0,2274.0,2465.0,2014.0,,,,-0.64126771006355,-2.91229836665381,-0.800596936484123,,-0.43531817573072057,,
,3907.0,1322.0,6404.0,1206.0,2241.0,2473.0,2016.0,,,,-0.641449763761992,-2.91241854428416,-0.800375096881478,,-1.2381829896509524,,
,3912.0,1321.0,6408.0,1204.0,2237.0,2469.0,2020.0,,,,-0.641829810867827,-2.91238635137937,-0.800740722585313,,-1.9669313302649944,,
,3911.0,1324.0,6410.0,1207.0,2251.0,2487.0,2005.0,,,,-0.641992141961784,-2.91254829624871,-0.80105590521922,,-2.6159992994467176,,
,3910.0,1327.0,6412.0,1207.0,2254.0,2486.0,2012.0,,,,-0.642417903093941,-2.91258065381912,-0.800861037204373,,-3.18357890906658,,
,3918.0,1327.0,6419.0,1210.0,2252.0,2478.0,2019.0,,,,-0.642205524033123,-2.91255635397226,-0.800931996283564,,-3.6712874604917105,,
,3917.0,1330.0,6422.0,1209.0,2248.0,2471.0,2015.0,,,,-0.641962625638197,-2.91252242066226,-0.800763786015178,,-4.08370060366431,,
,3919.0,1328.0,6425.0,1209.0,2256.0,2464.0,2007.0,,,,-0.641755985550153,-2.91237739052126,-0.800810463756158,,-4.427786675344569,,
,3922.0,1330.0,6427.0,1211.0,2258.0,2464.0,2009.0,,,,-0.64152258521044,-2.91220070210828,-0.79976853823303,,-4.712281577917749,,
,3923.0,1333.0,6431.0,1214.0,2272.0,2469.0,2016.0,,,,-0.64088313090414,-2.91223162399289,-0.799508678801617,,-4.947041993026367,,
,3927.0,1332.0,6433.0,1219.0,2260.0,2471.0,2009.0,,,,-0.640651133922966,-2.91226269128543,-0.799493470573248,,-5.142410734338347,,
,3929.0,1331.0,6437.0,1216.0,2250.0,2470.0,2009.0,,,,-0.640933935400808,-2.91216042420082,-0.800062239716718,,-5.308622453250986,,
,3930.0,1335.0,6439.0,1217.0,2256.0,2474.0,2011.0,,,,-0.640586333550163,-2.91217573564227,-0.799134069458506,,-5.455271608593179,,
,3932.0,1336.0,6446.0,1218.0,2226.0,2478.0,2008.0,,,,-0.640925189730005,-2.9121990493376,-0.799453693231975,,-5.590858366853827,,
,3937.0,1338.0,6450.0,1218.0,2245.0,2454.0,2010.0,,,,-0.641163204417985,-2.91213237193505,-0.799461895416176,,-5.722422530445336,,
,3937.0,1338.0,6451.0,1224.0,2254.0,2455.0,2021.0,,,,-0.641280079382393,-2.91218512728185,-0.799058286260135,,-5.855271029056261,,
,3940.0,1341.0,6455.0,1220.0,2254.0,2459.0,2011.0,,,,-0.64119953286599,-2.91208419353132,-0.798725263597694,,-5.9928008880935675,,
,3940.0,1339.0,6453.0,1222.0,2247.0,2459.0,2009.0,,,,-0.641290356542497,-2.91219419265272,-0.799056022014067,,-6.136416526244052,,
,3944.0,1340.0,6462.0,1226.0,2270.0,2459.0,2005.0,,,,-0.641559513517294,-2.91222806153411,-0.798938536343348,,-6.2855372164139975,,
,3945.0,1344.0,6460.0,1224.0,2279.0,2482.0,2007.0,,,,-0.641813204990447,-2.91235841940589,-0.79885248981764,,-6.437687098021348,,
,3946.0,1343.0,6466.0,1226.0,2256.0,2474.0,2009.0,,,,-0.641977704950555,-2.9123642739227,-0.799257892012641,,-6.588656153738654,,
,3944.0,1347.0,6469.0,1225.0,2262.0,2464.0,2008.0,,,,-0.642212399567832,-2.91229797592811,-0.799476225490826,,-6.732716835506204,,
,3942.0,1343.0,6467.0,1226.0,2249.0,2461.0,2001.0,,,,-0.642429232282757,-2.91240136033228,-0.799859321188835,,-6.862879197039745,,
,3939.0,1340.0,6461.0,1223.0,2257.0,2473.0,2016.0,,,,-0.642526698253038,-2.91225853154589,-0.799060140260448,,-6.971168917082707,,
,3928.0,1337.0,6452.0,1218.0,2256.0,2481.0,2019.0,,,,-0.64250208886073,-2.91249495782023,-0.798920084113531,,-7.048917313333612,,
,3918.0,1332.0,6437.0,1214.0,2253.0,2473.0,2023.0,,,,-0.642615389769778,-2.91245703395538,-0.799135809429778,,-7.087058274373153,,
,3908.0,1324.0,6420.0,1207.0,2252.0,2468.0,2023.0,,,,-0.643130949282333,-2.91243250418675,-0.799969996682476,,-7.076431213890578,,
,3899.0,1322.0,6400.0,1205.0,2238.0,2478.0,2009.0,,,,-0.643895227076696,-2.9123986837449,-0.79935896772962,,-7.0080898825904905,,
,3889.0,1315.0,6376.0,1198.0,2233.0,2491.0,2006.0,,,,-0.644258471757858,-2.91258048393972,-0.801537732612,,-6.8736141272006375,,
,3881.0,1308.0,6348.0,1195.0,2245.0,2482.0,2012.0,,,,-0.644605019224673,-2.91258632673935,-0.800790175621933,,-6.665416890050576,,
,3869.0,1304.0,6323.0,1189.0,2234.0,2465.0,2012.0,,,,-0.644864606019325,-2.9126110635884,-0.801140769540542,,-6.377034040829345,,
,3862.0,1302.0,6304.0,1186.0,2242.0,2469.0,2008.0,,,,-0.645397933440401,-2.91276648670192,-0.801658152750574,,-6.003382250589519,,
,3852.0,1299.0,6284.0,1182.0,2238.0,2475.0,2007.0,,,,-0.646115667293839,-2.91302630766767,-0.801685262574965,,-5.540971809648671,,
,3846.0,1292.0,6266.0,1177.0,2247.0,2476.0,2005.0,,,,-0.646836123877521,-2.91292650607243,-0.802664830824263,,-4.988067744761374,,
,3838.0,1291.0,6253.0,1170.0,2232.0,2472.0,2010.0,,,,-0.647263708831886,-2.91314614304075,-0.802817440819822,,-4.3448028976214115,,
,3833.0,1286.0,6241.0,1170.0,2240.0,2475.0,2007.0,,,,-0.648084118777296,-2.91324257688344,-0.803400215140892,,-3.61325802514701,,
,3830.0,1285.0,6235.0,1169.0,2246.0,2473.0,2015.0,,,,-0.648788310226077,-2.91338749850198,-0.804030266154223,,-2.7975322822788544,,
,3825.0,1284.0,6226.0,1168.0,2233.0,2477.0,2019.0,,,,-0.649429278068786,-2.91352536381506,-0.804855564866376,,-1.9038285036768219,,
,3825.0,1282.0,6222.0,1166.0,2237.0,2469.0,2007.0,,,,-0.649217167657499,-2.91354764847058,-0.803511317384702,,-0.9405696150445612,,
,3820.0,1280.0,6218.0,1163.0,2256.0,2476.0,2007.0,,,,-0.649324972792765,-2.91366853515519,-0.804872585148563,,0.08145298450467325,,
,3822.0,1282.0,6219.0,1163.0,2247.0,2480.0,2016.0,,,,-0.650194052729713,-2.91372474765737,-0.805111455500361,,1.1489168915783863,,
,3819.0,1280.0,6219.0,1163.0,2257.0,2472.0,2006.0,,,,-0.649667287494168,-2.9138352347531,-0.805280990619218,,2.245827694422423,,
,3818.0,1282.0,6216.0,1160.0,2249.0,2467.0,2004.0,,,,-0.649495502439564,-2.91370368009375,-0.804662041463025,,3.353449702858957,,
,3819.0,1279.0,6215.0,1159.0,2244.0,2468.0,1996.0,,,,-0.649238030008891,-2.91367873663609,-0.805369399505458,,4.450367847487471,,
,3818.0,1280.0,6215.0,1161.0,2257.0,2466.0,2001.0,,,,-0.648612199887347,-2.91351372670043,-0.804552204256105,,5.512741786142982,,
,3820.0,1282.0,6218.0,1161.0,2261.0,2469.0,2001.0,,,,-0.648115906067534,-2.91337121451241,-0.804048571546289,,6.514804962003375,,
,3819.0,1282.0,6222.0,1162.0,2262.0,2468.0,1998.0,,,,-0.647378983076885,-2.91340135483562,-0.803536743905858,,7.42964183751351,,
,3820.0,1284.0,6219.0,1162.0,2247.0,2473.0,1998.0,,,,-0.646549985782593,-2.91309752413515,-0.803387619896272,,8.230246163525091,,
,3819.0,1280.0,6223.0,1162.0,2254.0,2468.0,2014.0,,,,-0.646092931532281,-2.91310538833825,-0.801365994893196,,8.890824564235732,,
,3822.0,1282.0,6228.0,1164.0,2252.0,2470.0,2007.0,,,,-0.644783024952961,-2.91313499875173,-0.802529964015458,,9.38826789277995,,
,3823.0,1282.0,6230.0,1163.0,2261.0,2465.0,2006.0,,,,-0.644403971865054,-2.91292404618666,-0.801520607367985,,9.70367438032353,,
,3823.0,1283.0,6232.0,1162.0,2256.0,2460.0,2024.0,,,,-0.643253670355808,-2.91293357779128,-0.800166444674694,,9.823780463626811,,
,3822.0,1283.0,6234.0,1164.0,2256.0,2474.0,2011.0,,,,-0.64293636100088,-2.91275093705114,-0.800356081250145,,9.742142961395986,,
,3822.0,1285.0,6235.0,1166.0,2231.0,2466.0,2002.0,,,,-0.642258174997182,-2.91250411347252,-0.799755572129431,,9.459923530413517,,
,3830.0,1287.0,6241.0,1168.0,2251.0,2461.0,2009.0,,,,-0.641374955433207,-2.91251769744369,-0.800040365272098,,8.986154497111617,,
,3828.0,1286.0,6246.0,1167.0,2258.0,2458.0,2013.0,,,,-0.640572149640168,-2.91231887387757,-0.799704965299375,,8.337413419301173,,
,3828.0,1285.0,6246.0,1167.0,2253.0,2465.0,2012.0,,,,-0.639855576215739,-2.91236240622359,-0.798936350308972,,7.536898278342244,,
,3829.0,1287.0,6250.0,1167.0,2260.0,2472.0,2012.0,,,,-0.639856594700052,-2.91220633961644,-0.798995763496926,,6.612968197963837,,
,3831.0,1289.0,6253.0,1169.0,2254.0,2463.0,2003.0,,,,-0.639638213616536,-2.9121105958991,-0.798061946221493,,5.597284190101709,,
,3831.0,1289.0,6258.0,1168.0,2260.0,2471.0,2006.0,,,,-0.639591022795171,-2.91217124773643,-0.798036105050286,,4.522737388069102,,
,3830.0,1287.0,6259.0,1168.0,2252.0,2471.0,2011.0,,,,-0.639772185579282,-2.91215692075001,-0.796911018851922,,3.421378537904941,,
,3834.0,1287.0,6261.0,1169.0,2270.0,2467.0,2016.0,,,,-0.638391374828582,-2.91200641843214,-0.797243597347023,,2.322558833318259,,
,3832.0,1289.0,6263.0,1171.0,2265.0,2465.0,2017.0,,,,-0.638812301156914,-2.91200770058761,-0.796994068052011,,1.251461498017663,,
,3837.0,1289.0,6268.0,1169.0,2261.0,2459.0,2015.0,,,,-0.638788596941949,-2.91197314019493,-0.797454453457994,,0.22815248231063603,,
,3834.0,1288.0,6267.0,1172.0,2258.0,2459.0,2018.0,,,,-0.638650170018068,-2.91211945463602,-0.797040363985217,,-0.7327848137620064,,
,3836.0,1288.0,6266.0,1170.0,2266.0,2466.0,2017.0,,,,-0.639000285537316,-2.91212051782496,-0.797802758594451,,-1.6220335795832646,,
,3834.0,1289.0,6269.0,1171.0,2244.0,2466.0,2020.0,,,,-0.638377563718477,-2.91207034524892,-0.797898732111641,,-2.43481314388159,,
,3834.0,1289.0,6270.0,1170.0,2259.0,2471.0,2017.0,,,,-0.638524565589964,-2.91202802116426,-0.79776459640981,,-3.1697536102702015,,
,3833.0,1288.0,6272.0,1172.0,2258.0,2475.0,2015.0,,,,-0.638339976850314,-2.91201217637244,-0.79782458591418,,-3.8275307625221555,,
,3833.0,1289.0,6269.0,1170.0,2269.0,2464.0,2007.0,,,,-0.638260522096018,-2.91198300785138,-0.797742826098812,,-4.409431157501603,,
,3835.0,1288.0,6269.0,1170.0,2266.0,2466.0,2005.0,,,,-0.63794187011455,-2.91202803703654,-0.79709120431426,,-4.916011125778565,,
,3832.0,1287.0,6271.0,1174.0,2261.0,2462.0,2001.0,,,,-0.63809646876463,-2.91209038639197,-0.797111048176698,,-5.345990141616361,,
,3836.0,1289.0,6268.0,1172.0,2257.0,2464.0,2001.0,,,,-0.63775948381882,-2.91210532745618,-0.796884284528058,,-5.6954851761428245,,
,3832.0,1288.0,6270.0,1169.0,2270.0,2470.0,1999.0,,,,-0.637820991330506,-2.91195481560775,-0.797181691377069,,-5.957654625522936,,
,3831.0,1286.0,6269.0,1170.0,2254.0,2480.0,1995.0,,,,-0.637602778077529,-2.91203674212823,-0.7976543665473,,-6.122782258742937,,
,3833.0,1289.0,6267.0,1168.0,2242.0,2473.0,1993.0,,,,-0.637612193083877,-2.91193460776437,-0.797500177023527,,-6.178794743999499,,
,3834.0,1290.0,6269.0,1173.0,2268.0,2481.0,2000.0,,,,-0.637239472269817,-2.91203631933677,-0.797638049667894,,-6.112170992378924,,
,3833.0,1289.0,6268.0,1172.0,2259.0,2480.0,2005.0,,,,-0.637588849473337,-2.91197359021229,-0.797732854715158,,-5.909168726938566,,
,3830.0,1288.0,6272.0,1171.0,2251.0,2473.0,1989.0,,,,-0.637790158191742,-2.9121055630686,-0.798278112593808,,-5.557265462407212,,
,3834.0,1288.0,6273.0,1170.0,2246.0,2467.0,1998.0,,,,-0.637459020473292,-2.91222352937719,-0.798581464128962,,-5.046690418862164,,
,3837.0,1290.0,6273.0,1173.0,2237.0,2475.0,1998.0,,,,-0.637446394024031,-2.9122101056452,-0.797770819436941,,-4.371913922663198,,
,3836.0,1289.0,6272.0,1173.0,2257.0,2474.0,2002.0,,,,-0.638129650622894,-2.9123291188478,-0.798569090024312,,-3.532963991854117,,
,3836.0,1288.0,6274.0,1173.0,2257.0,2463.0,2003.0,,,,-0.638843205701422,-2.91247980972451,-0.800024823168008,,-2.5364564861937855,,
,3836.0,1289.0,6276.0,1173.0,2243.0,2470.0,2012.0,,,,-0.639794040107564,-2.91262429530312,-0.799898993690525,,-1.396252655868512,,
,3838.0,1291.0,6280.0,1174.0,2232.0,2481.0,2013.0,,,,-0.641394993250095,-2.91283275895782,-0.801029905716706,,-0.13369027169696132,,
,3841.0,1292.0,6283.0,1175.0,2227.0,2475.0,2012.0,,,,-0.642095324133765,-2.91297651488343,-0.801560348508294,,1.2226351193213698,,
,3840.0,1291.0,6285.0,1175.0,2230.0,2484.0,2008.0,,,,-0.643808568186118,-2.91332264474852,-0.802125071632485,,2.637538477182823,,
,3840.0,1291.0,6289.0,1175.0,2228.0,2473.0,2008.0,,,,-0.645670196942031,-2.91359158901509,-0.803062433330816,,4.070345472653056,,
2025-07-01 22:25:28,3844.0,1294.0,6293.0,1178.0,2240.0,2469.0,2006.0,,,2025/07/01 10:25:28 PM,-0.647787257852081,-2.91389131066322,-0.804663738490659,,5.476392031150495,,
,3846.0,1294.0,6295.0,1178.0,2227.0,2467.0,2006.0,,,,-0.650176843862119,-2.91425076282255,-0.806789980154462,,6.808872897526011,,
,3848.0,1295.0,6299.0,1179.0,2250.0,2465.0,2005.0,,,,-0.652589445023203,-2.91467721344002,-0.807429792749212,,8.020966010561322,,
,3849.0,1294.0,6302.0,1180.0,2269.0,2468.0,2002.0,,,,-0.654714997119188,-2.91534233546419,-0.81030684002022,,9.068133067138545,,
,3851.0,1293.0,6306.0,1179.0,2266.0,2465.0,1995.0,,,,-0.657866064895851,-2.91560728578587,-0.812519239239806,,9.910470834879066,,
,3853.0,1299.0,6312.0,1183.0,2234.0,2457.0,1999.0,,,,-0.659021002960565,-2.91595070360152,-0.812971599893705,,10.51496684360228,,
,3854.0,1300.0,6316.0,1183.0,2243.0,2451.0,2004.0,,,,-0.66019775071078,-2.91633507696862,-0.814221139753313,,10.857500558162245,,
,3855.0,1299.0,6322.0,1184.0,2257.0,2464.0,2016.0,,,,-0.66065160339873,-2.91638497203354,-0.814293830611,,10.924429982794587,,
,3859.0,1299.0,6322.0,1185.0,2263.0,2469.0,1994.0,,,,-0.660173788046198,-2.91648507597181,-0.813970664093787,,10.713616760161093,,
,3861.0,1302.0,6326.0,1186.0,2275.0,2471.0,2004.0,,,,-0.660574415830331,-2.91652967944292,-0.814972291579215,,10.234772813375859,,
,3863.0,1304.0,6332.0,1185.0,2239.0,2477.0,2003.0,,,,-0.659836084433662,-2.91644417445498,-0.814047336599189,,9.509059614058426,,
,3865.0,1303.0,6334.0,1188.0,2260.0,2476.0,2007.0,,,,-0.659722367451214,-2.9164327723034,-0.81411696551272,,8.567935061963603,,
,3866.0,1303.0,6336.0,1187.0,2291.0,2468.0,2007.0,,,,-0.659604971130244,-2.91636581132533,-0.813804418279402,,7.451315506074041,,
,3869.0,1307.0,6341.0,1191.0,2270.0,2469.0,2003.0,,,,-0.659818776432305,-2.91655316197998,-0.814532058194901,,6.205189986772065,,
,3872.0,1308.0,6346.0,1192.0,2272.0,2471.0,2003.0,,,,-0.659927731528996,-2.9164025814198,-0.814643105116466,,4.878878145701193,,
,3872.0,1309.0,6351.0,1192.0,2305.0,2472.0,2001.0,,,,-0.659793002028184,-2.91642619521473,-0.81538414646647,,3.522154187542038,,
,3875.0,1309.0,6354.0,1194.0,2275.0,2480.0,1997.0,,,,-0.660116331244283,-2.91658885751558,-0.815643550577827,,2.182464095088042,,
,3878.0,1311.0,6359.0,1196.0,2287.0,2475.0,1996.0,,,,-0.660443444808098,-2.91673307839569,-0.817254433108669,,0.9024436259150381,,
,3881.0,1312.0,6363.0,1198.0,2298.0,2483.0,1998.0,,,,-0.661808316194248,-2.9167914101428,-0.817486193095974,,-0.2820949981722695,,
,3881.0,1311.0,6366.0,1195.0,2304.0,2473.0,2006.0,,,,-0.66255810638165,-2.91703687736912,-0.818697899393868,,-1.3435924761026907,,
,3885.0,1313.0,6372.0,1198.0,2293.0,2478.0,2001.0,,,,-0.663898569236971,-2.91719528124618,-0.819402500480256,,-2.263530191473765,,
,3884.0,1316.0,6373.0,1196.0,2292.0,2463.0,2003.0,,,,-0.665154437350185,-2.91750015351782,-0.820218017912158,,-3.0325735772302918,,
,3887.0,1317.0,6378.0,1203.0,2300.0,2463.0,1990.0,,,,-0.666684818510057,-2.91760598785788,-0.821368819333626,,-3.6501157477871504,,
,3891.0,1317.0,6383.0,1203.0,2294.0,2469.0,1995.0,,,,-0.667887637631697,-2.91789689652973,-0.822888584324919,,-4.123304235229878,,
,3890.0,1317.0,6385.0,1204.0,2303.0,2468.0,2000.0,,,,-0.668772566491513,-2.91798992385673,-0.823482538842128,,-4.465662624163199,,
,3893.0,1319.0,6387.0,1202.0,2290.0,2458.0,1988.0,,,,-0.669670909343556,-2.91807893072806,-0.823636660124931,,-4.69543887781433,,
,3894.0,1320.0,6394.0,1204.0,2270.0,2460.0,1998.0,,,,-0.66937990864408,-2.91799949073728,-0.82291110337211,,-4.833822691791179,,
,3901.0,1324.0,6396.0,1207.0,2285.0,2471.0,1995.0,,,,-0.669441958791011,-2.91795964979048,-0.823222871227075,,-4.903174161714072,,
,3901.0,1321.0,6400.0,1206.0,2281.0,2472.0,1993.0,,,,-0.668607583033881,-2.91787337538948,-0.822606129637289,,-4.925394379600456,,
,3906.0,1324.0,6403.0,1211.0,2276.0,2464.0,2009.0,,,,-0.668128330936365,-2.91764181384318,-0.821505461202601,,-4.920545402136953,,
,3904.0,1321.0,6404.0,1207.0,2288.0,2461.0,1995.0,,,,-0.667410617953397,-2.91764824280741,-0.820827755633232,,-4.905794407778202,,
,3906.0,1328.0,6410.0,1211.0,2298.0,2465.0,1995.0,,,,-0.666912234189606,-2.91731082926978,-0.819863886874934,,-4.894718617781861,,
,3906.0,1326.0,6409.0,1213.0,2290.0,2460.0,2000.0,,,,-0.665988278333573,-2.91723839819308,-0.819518288888047,,-4.896968421012065,,
,3910.0,1328.0,6418.0,1211.0,2283.0,2463.0,2003.0,,,,-0.665413877389705,-2.91704207021992,-0.820306855181861,,-4.918250956444425,,
,3913.0,1327.0,6419.0,1212.0,2278.0,2464.0,2004.0,,,,-0.665240601915038,-2.91708679821846,-0.819585952061147,,-4.960569780665778,,
,3913.0,1329.0,6422.0,1214.0,2301.0,2471.0,2005.0,,,,-0.665391246336138,-2.91701347162072,-0.819535272163793,,-5.022641799231726,,
,3914.0,1331.0,6423.0,1213.0,2294.0,2467.0,1999.0,,,,-0.666059162421322,-2.916994303448,-0.818910469041332,,-5.1004116223300535,,
,3917.0,1330.0,6425.0,1216.0,2283.0,2472.0,1993.0,,,,-0.667071657117225,-2.91712820379782,-0.819515030703982,,-5.187594056481157,,
,3919.0,1332.0,6428.0,1217.0,2267.0,2481.0,2005.0,,,,-0.667715122463968,-2.91726774419352,-0.820308412305261,,-5.276193484643245,,
,3919.0,1332.0,6432.0,1215.0,2282.0,2479.0,2011.0,,,,-0.668505370460763,-2.91752523333836,-0.821343764416107,,-5.356969944662284,,
,3922.0,1336.0,6436.0,1217.0,2294.0,2474.0,2005.0,,,,-0.670045227126034,-2.91756443041008,-0.820831807717552,,-5.419842231667423,,
,3925.0,1334.0,6437.0,1219.0,2282.0,2479.0,2009.0,,,,-0.671229715331813,-2.91768062807303,-0.822648423104753,,-5.4542357985418715,,
,3926.0,1338.0,6440.0,1219.0,2274.0,2478.0,2007.0,,,,-0.672185398953275,-2.91796015461097,-0.822420660622772,,-5.449395594062291,,
,3925.0,1335.0,6443.0,1219.0,2275.0,2483.0,1990.0,,,,-0.673382253326822,-2.91815963313442,-0.822622028045587,,-5.394689629937232,,
,3929.0,1336.0,6446.0,1222.0,2298.0,2484.0,1995.0,,,,-0.674421323872006,-2.91824689644936,-0.823922043324765,,-5.279927354757167,,
,3930.0,1337.0,6445.0,1222.0,2296.0,2473.0,2009.0,,,,-0.674988334875111,-2.91833415095757,-0.82437081236742,,-5.095708733761996,,
,3927.0,1339.0,6447.0,1222.0,2299.0,2476.0,2022.0,,,,-0.675532389637494,-2.91848122776876,-0.824833215303989,,-4.833807595656679,,
,3923.0,1336.0,6443.0,1221.0,2282.0,2475.0,2019.0,,,,-0.676278750528155,-2.91849802334138,-0.824413602162412,,-4.487579363122024,,
,3916.0,1332.0,6439.0,1220.0,2287.0,2469.0,2014.0,,,,-0.676396041131683,-2.91872529688549,-0.825684604082413,,-4.052371809329389,,
,3906.0,1328.0,6426.0,1215.0,2268.0,2477.0,2025.0,,,,-0.677147580381037,-2.91872747858415,-0.825478427319145,,-3.52591034837301,,
,3900.0,1324.0,6413.0,1210.0,2272.0,2476.0,2017.0,,,,-0.677882129643716,-2.91878208189601,-0.825695593245708,,-2.9086275571086335,,
,3890.0,1318.0,6392.0,1205.0,2280.0,2470.0,2006.0,,,,-0.678517569755188,-2.91882858394563,-0.826647145543167,,-2.203909712583212,,
,3877.0,1311.0,6368.0,1197.0,2271.0,2462.0,1996.0,,,,-0.679883467472297,-2.919182790143,-0.827261084433955,,-1.4182400418887948,,
,3868.0,1309.0,6345.0,1196.0,2255.0,2468.0,1998.0,,,,-0.681307981082216,-2.91926286730191,-0.828583418972502,,-0.5612278634933272,,
,3861.0,1306.0,6323.0,1191.0,2273.0,2481.0,2001.0,,,,-0.681939284528689,-2.91942507504835,-0.829270993185643,,0.354477077241071,,
,3852.0,1300.0,6302.0,1187.0,2275.0,2477.0,1999.0,,,,-0.681960242908659,-2.9196213859022,-0.829985075008168,,1.3133778032136136,,
,3841.0,1293.0,6282.0,1181.0,2283.0,2462.0,1998.0,,,,-0.682209122989675,-2.91979883330839,-0.830469636800606,,2.2974201858588272,,
,3834.0,1291.0,6268.0,1178.0,2295.0,2473.0,1999.0,,,,-0.682912999587784,-2.91973463192129,-0.83147551585938,,3.2863710172003477,,
,3825.0,1289.0,6253.0,1174.0,2286.0,2474.0,1991.0,,,,-0.682869304795649,-2.91965517768148,-0.833129989228473,,4.258280283868961,,
,3820.0,1285.0,6240.0,1170.0,2271.0,2474.0,1986.0,,,,-0.683304499983381,-2.91982220112574,-0.832523397600164,,5.1900292803878845,,
,3816.0,1282.0,6229.0,1166.0,2273.0,2479.0,2008.0,,,,-0.683499412943523,-2.91985553182739,-0.831916714287656,,6.057969131727618,,
,3809.0,1282.0,6221.0,1165.0,2304.0,2470.0,1996.0,,,,-0.683480027321113,-2.92006571531071,-0.832915885444084,,6.838653054319722,,
,3807.0,1280.0,6214.0,1165.0,2304.0,2476.0,1997.0,,,,-0.683266848932905,-2.92000246712285,-0.833777699931146,,7.509659784484924,,
,3804.0,1280.0,6211.0,1165.0,2293.0,2481.0,1990.0,,,,-0.683798499592907,-2.91991499952294,-0.833923700649576,,8.050495276127652,,
,3805.0,1277.0,6205.0,1163.0,2284.0,2482.0,1989.0,,,,-0.68370267033175,-2.92007988549427,-0.833147769252423,,8.443545512460512,,
,3798.0,1275.0,6205.0,1159.0,2274.0,2477.0,1991.0,,,,-0.6837620973834,-2.91987879930977,-0.834373886901764,,8.675035750083815,,
,3801.0,1277.0,6202.0,1162.0,2299.0,2477.0,1999.0,,,,-0.683893527929196,-2.92009347316171,-0.833805716193917,,8.735931938283457,,
,3801.0,1278.0,6206.0,1160.0,2293.0,2469.0,1993.0,,,,-0.683346933234126,-2.92002694592361,-0.834027982316012,,8.622701131449537,,
,3804.0,1275.0,6206.0,1162.0,2299.0,2468.0,1973.0,,,,-0.683335362730982,-2.91986738529334,-0.833349912717799,,8.337834597556787,,
,3797.0,1275.0,6204.0,1158.0,2287.0,2466.0,1976.0,,,,-0.683017939225458,-2.91977412601683,-0.83435892396246,,7.890037395095594,,
,3800.0,1275.0,6205.0,1158.0,2292.0,2465.0,2003.0,,,,-0.682455983388459,-2.9198170798408,-0.833590403770904,,7.294008438951085,,
,3801.0,1277.0,6209.0,1160.0,2295.0,2458.0,2000.0,,,,-0.682341467393127,-2.9200767151511,-0.834782963149458,,6.569777842830584,,
,3801.0,1278.0,6211.0,1161.0,2300.0,2456.0,1997.0,,,,-0.681631329718535,-2.9199242164756,-0.833749691748664,,5.741627950498304,,
,3801.0,1279.0,6213.0,1159.0,2296.0,2457.0,1997.0,,,,-0.681725038016722,-2.92002380487403,-0.834811893238794,,4.836687711129028,,
,3801.0,1275.0,6212.0,1159.0,2268.0,2473.0,2003.0,,,,-0.681671456715535,-2.91985972954515,-0.835178232098201,,3.8833408696791314,,
,3803.0,1277.0,6216.0,1159.0,2283.0,2465.0,2007.0,,,,-0.681738274541287,-2.91998217400941,-0.83571660832683,,2.90961434158802,,
,3806.0,1279.0,6219.0,1162.0,2296.0,2460.0,1998.0,,,,-0.681285981561719,-2.91990637287937,-0.836067338341531,,1.9417093796509886,,
,3805.0,1278.0,6220.0,1161.0,2279.0,2462.0,1999.0,,,,-0.680872440930582,-2.92010813043884,-0.835534630302867,,1.0028080654629106,,
,3807.0,1280.0,6222.0,1159.0,2266.0,2468.0,1996.0,,,,-0.680910081061457,-2.92005134006358,-0.835060593900919,,0.11224008848574134,,
,3807.0,1279.0,6227.0,1163.0,2271.0,2463.0,2005.0,,,,-0.680056680044583,-2.91981164260333,-0.835151522719552,,-0.7149595609466555,,
,3812.0,1281.0,6231.0,1163.0,2299.0,2464.0,2007.0,,,,-0.680046236765373,-2.91982782337784,-0.83379175632053,,-1.4681227108972086,,
,3813.0,1282.0,6233.0,1165.0,2327.0,2457.0,2013.0,,,,-0.679273559413004,-2.91980665307681,-0.833560175269126,,-2.140711824830543,,
,3811.0,1282.0,6238.0,1165.0,2320.0,2447.0,2025.0,,,,-0.678814677024404,-2.91976243598523,-0.834769278420691,,-2.7298641301623494,,
,3813.0,1280.0,6239.0,1165.0,2295.0,2456.0,2011.0,,,,-0.678940557340225,-2.91981028077632,-0.834000948530094,,-3.2358153910440044,,
,3818.0,1283.0,6243.0,1166.0,2268.0,2466.0,2004.0,,,,-0.678902081664784,-2.91967595391904,-0.833933666323279,,-3.6612977833324702,,
,3817.0,1287.0,6246.0,1169.0,2282.0,2464.0,2003.0,,,,-0.678897700733489,-2.9196193910819,-0.833055020036171,,-4.0109878051175025,,
,3818.0,1284.0,6245.0,1166.0,2283.0,2468.0,2007.0,,,,-0.679000448261596,-2.91973762145989,-0.832575768903727,,-4.29105158024988,,
,3816.0,1282.0,6251.0,1167.0,2297.0,2470.0,2008.0,,,,-0.678744138689936,-2.91975037254459,-0.832987553596763,,-4.508801817533557,,
,3815.0,1283.0,6250.0,1165.0,2275.0,2470.0,1999.0,,,,-0.678842221835467,-2.91971718099061,-0.833277773231506,,-4.6724499059610425,,
,3816.0,1286.0,6252.0,1166.0,2286.0,2464.0,1999.0,,,,-0.678934321419461,-2.91945969965209,-0.833609394406376,,-4.790914301896027,,
,3816.0,1287.0,6252.0,1168.0,2292.0,2459.0,1997.0,,,,-0.677906643145539,-2.91950597393841,-0.832762415503954,,-4.8736357945075,,
,3816.0,1283.0,6251.0,1166.0,2273.0,2463.0,1998.0,,,,-0.678709873086557,-2.91958814291639,-0.832427721772242,,-4.930351347958166,,
,3814.0,1281.0,6251.0,1166.0,2290.0,2469.0,1999.0,,,,-0.678524850400461,-2.91950484588458,-0.832407795344911,,-4.97078889854657,,
,3816.0,1284.0,6251.0,1167.0,2265.0,2458.0,2005.0,,,,-0.679304836471593,-2.919656420288,-0.832973368962019,,-5.0042631189951186,,
,3816.0,1283.0,6249.0,1165.0,2272.0,2468.0,2003.0,,,,-0.680301772623322,-2.9194995557227,-0.832975122245445,,-5.039174116599808,,
,3811.0,1280.0,6247.0,1165.0,2285.0,2472.0,2002.0,,,,-0.680186031986752,-2.91965308772939,-0.83319472234399,,-5.082434336397745,,
,3814.0,1282.0,6248.0,1164.0,2282.0,2467.0,1997.0,,,,-0.680460521706615,-2.91955611975412,-0.832068550287563,,-5.138870108672235,,
,3814.0,1284.0,6248.0,1165.0,2265.0,2471.0,1995.0,,,,-0.680021480530629,-2.91962047702727,-0.833065439091026,,-5.210659820529765,,
,3814.0,1282.0,6247.0,1165.0,2295.0,2470.0,1986.0,,,,-0.680399369670109,-2.91958773431101,-0.832711929396651,,-5.296878057425615,,
,3812.0,1281.0,6245.0,1166.0,2279.0,2467.0,1998.0,,,,-0.680167878832847,-2.91974345384173,-0.8331580832349,,-5.3932132670490125,,
,3811.0,1280.0,6243.0,1164.0,2282.0,2462.0,1999.0,,,,-0.679932805649369,-2.91950995259834,-0.832175636951116,,-5.491915996459276,,
,3810.0,1279.0,6244.0,1164.0,2273.0,2455.0,1995.0,,,,-0.679311536963773,-2.91946560038988,-0.831976754034928,,-5.582016858997711,,
,3811.0,1282.0,6248.0,1164.0,2287.0,2462.0,1993.0,,,,-0.679958643949327,-2.91951807386257,-0.831891520439532,,-5.649829687301589,,
,3811.0,1282.0,6245.0,1164.0,2293.0,2469.0,1991.0,,,,-0.67996468388101,-2.91953801475324,-0.832071649061795,,-5.679727375813406,,
,3812.0,1282.0,6247.0,1164.0,2288.0,2472.0,1999.0,,,,-0.680148949161712,-2.91969785426471,-0.832877989754068,,-5.655147517519857,,
,3813.0,1280.0,6248.0,1166.0,2293.0,2472.0,1998.0,,,,-0.679544901546584,-2.91969085716241,-0.832230405648403,,-5.559755000945822,,
,3814.0,1282.0,6249.0,1167.0,2288.0,2466.0,2003.0,,,,-0.679624145798107,-2.91954516994496,-0.831906643772926,,-5.378663787937259,,
,3813.0,1283.0,6254.0,1165.0,2281.0,2469.0,1999.0,,,,-0.679506723705051,-2.91964424847781,-0.833028736684902,,-5.099605407336504,,
